workerid,language,tournamentCondition,player1color,player2color,player3color,sentence,condition,conditionOrder,correctAnswer,advancesCorrectFirstTime,advances,trialnum,response,rt,trainingCorrect
A357X6NIBOTHH0,ENGLISH,any advances,lightorange,seafoam,midnight,Player B made shots,half-half-all,half-half-all,A-B-C,yes,A-B-C,24,6,8606,NA
A357X6NIBOTHH0,ENGLISH,any advances,yellow,brown,grey,All of the players will advance,none-none-none,none-none-none,none,yes,none,25,1,4654,NA
A357X6NIBOTHH0,ENGLISH,any advances,lightblue,yellow,darkorange,Two players will advance,half-half-all,half-half-all,A-B-C,yes,A-B-C,26,3,9383,NA
A357X6NIBOTHH0,ENGLISH,any advances,tan,brown,seafoam,Player B will be pleased,all-all-all,all-all-all,A-B-C,yes,A-B-C,27,7,9794,NA
A357X6NIBOTHH0,ENGLISH,any advances,royalblue,brown,lightblue,Player A will advance,none-none-all,none-all-none,B,yes,B,20,3,5749,NA
A357X6NIBOTHH0,ENGLISH,any advances,seafoam,brown,yellow,Most of the players will advance,all-all-all,all-all-all,A-B-C,yes,A-B-C,21,5,9519,NA
A357X6NIBOTHH0,ENGLISH,any advances,purple,pink,grey,Player B will be disappointed,half-half-all,all-half-half,A-B-C,yes,A-B-C,22,4,11489,NA
A357X6NIBOTHH0,ENGLISH,any advances,grey,lightblue,yellow,No player hit some of his shots,none-none-none,none-none-none,none,yes,none,23,3,6407,NA
A357X6NIBOTHH0,ENGLISH,any advances,royalblue,pink,grey,Player B will advance,half-half-all,all-half-half,A-B-C,yes,A-B-C,28,6,15446,NA
A357X6NIBOTHH0,ENGLISH,any advances,brown,lightorange,lightblue,Player C will be disappointed,all-all-all,all-all-all,A-B-C,yes,A-B-C,1,1,11987,NA
A357X6NIBOTHH0,ENGLISH,any advances,darkorange,yellow,lavender,Player C made shots,half-all-all,all-all-half,A-B-C,yes,A-B-C,0,1,19006,NA
A357X6NIBOTHH0,ENGLISH,any advances,seafoam,pink,lightorange,Player A made shots,half-all-all,half-all-all,A-B-C,yes,A-B-C,3,2,10016,NA
A357X6NIBOTHH0,ENGLISH,any advances,lightorange,grey,pink,One player will advance,none-none-all,none-all-none,B,yes,B,2,3,12467,NA
A357X6NIBOTHH0,ENGLISH,any advances,midnight,lavender,tan,All the players will advance,none-none-half,none-none-half,C,yes,C,5,1,7992,NA
A357X6NIBOTHH0,ENGLISH,any advances,royalblue,lavender,midnight,Exactly one player hit some of his shots,half-half-half,half-half-half,A-B-C,yes,A-B-C,4,1,12854,NA
A357X6NIBOTHH0,ENGLISH,any advances,royalblue,yellow,pink,Every player hit none of his shots,half-half-all,half-half-all,A-B-C,yes,A-B-C,7,1,12336,NA
A357X6NIBOTHH0,ENGLISH,any advances,wheat,purple,darkorange,Every player hit some of his shots,none-all-all,all-all-none,A-B,yes,A-B,6,1,11933,NA
A357X6NIBOTHH0,ENGLISH,any advances,darkorange,lightorange,seafoam,Three players will advance,half-all-all,all-all-half,A-B-C,yes,A-B-C,9,6,8729,NA
A357X6NIBOTHH0,ENGLISH,any advances,midnight,pink,brown,Player A will be disappointed,none-none-none,none-none-none,none,no,none,8,4,19619,NA
A357X6NIBOTHH0,ENGLISH,any advances,darkorange,tan,royalblue,Player C will be pleased,none-none-none,none-none-none,none,yes,none,11,1,7116,NA
A357X6NIBOTHH0,ENGLISH,any advances,lavender,darkorange,brown,Player C will advance,half-half-all,all-half-half,A-B-C,yes,A-B-C,10,5,9191,NA
A357X6NIBOTHH0,ENGLISH,any advances,lightorange,seafoam,lightblue,No player hit all of his shots,none-all-all,none-all-all,B-C,yes,B-C,13,1,12777,NA
A357X6NIBOTHH0,ENGLISH,any advances,pink,brown,grey,No player hit none of his shots,half-all-all,half-all-all,A-B-C,yes,A-B-C,12,1,11460,NA
A357X6NIBOTHH0,ENGLISH,any advances,lavender,pink,brown,Player A will be pleased,none-all-all,all-none-all,A-C,yes,A-C,15,5,9368,NA
A357X6NIBOTHH0,ENGLISH,any advances,grey,seafoam,lightorange,None of the players will advance,half-half-half,half-half-half,A-B-C,yes,A-B-C,14,7,11875,NA
A357X6NIBOTHH0,ENGLISH,any advances,midnight,royalblue,brown,Exactly one player hit none of his shots,none-none-half,none-half-none,B,yes,B,17,2,10455,NA
A357X6NIBOTHH0,ENGLISH,any advances,midnight,darkorange,wheat,At least one player will advance,all-all-all,all-all-all,A-B-C,yes,A-B-C,16,7,9651,NA
A357X6NIBOTHH0,ENGLISH,any advances,tan,grey,brown,Every player hit all of his shots,none-none-none,none-none-none,none,yes,none,19,1,4670,NA
A357X6NIBOTHH0,ENGLISH,any advances,tan,brown,wheat,Exactly one player hit all of his shots,none-half-all,all-none-half,A-C,yes,A-C,18,5,8934,NA
A357X6NIBOTHH0,ENGLISH,any advances,seafoam,purple,pink,Player A was the star player of the round,most-none-all,most-none-all,A-C,yes,A-C,-1,1,18546,yes
A357X6NIBOTHH0,ENGLISH,any advances,purple,yellow,brown,Player C messed up,all-all-none,all-all-none,A-B,yes,A-B,-3,7,35039,no
A357X6NIBOTHH0,ENGLISH,any advances,midnight,brown,purple,Player B will advance to the next round,all-few-none,all-few-none,A-B,yes,A-B,-2,6,29403,no
A143O8BE9O5OLG,English,all advances,purple,wheat,royalblue,Player B will advance,none-none-half,none-none-half,none,yes,none,24,1,5927,NA
A143O8BE9O5OLG,English,all advances,purple,wheat,lightorange,Two players will advance,none-half-half,none-half-half,none,yes,none,25,1,4384,NA
A143O8BE9O5OLG,English,all advances,brown,seafoam,wheat,At least one player will advance,none-none-all,none-none-all,C,yes,C,26,7,6478,NA
A143O8BE9O5OLG,English,all advances,darkorange,tan,grey,Player B will be pleased,none-none-half,none-half-none,none,yes,none,27,1,3518,NA
A143O8BE9O5OLG,English,all advances,tan,royalblue,lightblue,No player hit some of his shots,half-half-all,all-half-half,A,yes,A,20,1,10319,NA
A143O8BE9O5OLG,English,all advances,purple,lightorange,wheat,Player A will be disappointed,all-all-all,all-all-all,A-B-C,yes,A-B-C,21,1,6894,NA
A143O8BE9O5OLG,English,all advances,lightblue,tan,yellow,All of the players will advance,none-none-half,none-half-none,none,yes,none,22,1,6160,NA
A143O8BE9O5OLG,English,all advances,midnight,purple,grey,Player C will be pleased,none-none-all,none-none-all,C,yes,C,23,7,5966,NA
A143O8BE9O5OLG,English,all advances,wheat,lavender,lightorange,Every player hit none of his shots,none-half-half,none-half-half,none,yes,none,28,1,4031,NA
A143O8BE9O5OLG,English,all advances,lightblue,lightorange,grey,No player hit none of his shots,half-all-all,half-all-all,B-C,yes,B-C,1,1,7654,NA
A143O8BE9O5OLG,English,all advances,seafoam,wheat,midnight,Player A made shots,half-half-half,half-half-half,none,yes,none,0,7,8210,NA
A143O8BE9O5OLG,English,all advances,seafoam,lightorange,lightblue,Player B will be disappointed,half-half-half,half-half-half,none,yes,none,3,7,6728,NA
A143O8BE9O5OLG,English,all advances,darkorange,midnight,pink,All the players will advance,none-none-all,none-all-none,B,yes,B,2,1,7327,NA
A143O8BE9O5OLG,English,all advances,darkorange,royalblue,yellow,Every player hit all of his shots,none-none-half,none-none-half,none,yes,none,5,1,4270,NA
A143O8BE9O5OLG,English,all advances,lavender,seafoam,lightorange,One player will advance,all-all-all,all-all-all,A-B-C,yes,A-B-C,4,1,9790,NA
A143O8BE9O5OLG,English,all advances,midnight,royalblue,seafoam,Every player hit some of his shots,none-none-half,none-none-half,none,yes,none,7,1,5935,NA
A143O8BE9O5OLG,English,all advances,purple,seafoam,pink,Player C made shots,none-none-all,all-none-none,A,yes,A,6,1,5613,NA
A143O8BE9O5OLG,English,all advances,darkorange,yellow,lavender,Three players will advance,half-half-half,half-half-half,none,yes,none,9,1,3846,NA
A143O8BE9O5OLG,English,all advances,midnight,lightorange,darkorange,Exactly one player hit all of his shots,none-half-half,half-none-half,none,yes,none,8,1,4263,NA
A143O8BE9O5OLG,English,all advances,midnight,royalblue,tan,None of the players will advance,none-half-all,all-none-half,A,yes,A,11,1,5351,NA
A143O8BE9O5OLG,English,all advances,seafoam,lavender,yellow,Exactly one player hit some of his shots,none-none-half,none-none-half,none,yes,none,10,1,4638,NA
A143O8BE9O5OLG,English,all advances,brown,wheat,lavender,Player C will be disappointed,all-all-all,all-all-all,A-B-C,yes,A-B-C,13,7,6277,NA
A143O8BE9O5OLG,English,all advances,yellow,brown,purple,Player A will be pleased,all-all-all,all-all-all,A-B-C,yes,A-B-C,12,7,7182,NA
A143O8BE9O5OLG,English,all advances,lavender,darkorange,pink,No player hit all of his shots,none-none-half,none-none-half,none,yes,none,15,7,8327,NA
A143O8BE9O5OLG,English,all advances,lightorange,lavender,pink,Player B made shots,half-all-all,all-half-all,A-C,yes,A-C,14,7,10863,NA
A143O8BE9O5OLG,English,all advances,lavender,pink,wheat,Most of the players will advance,half-all-all,half-all-all,B-C,yes,B-C,17,7,5647,NA
A143O8BE9O5OLG,English,all advances,lightorange,brown,seafoam,Exactly one player hit none of his shots,none-half-all,all-none-half,A,yes,A,16,7,5013,NA
A143O8BE9O5OLG,English,all advances,brown,yellow,tan,Player A will advance,half-half-half,half-half-half,none,yes,none,19,1,3646,NA
A143O8BE9O5OLG,English,all advances,lightblue,purple,tan,Player C will advance,none-all-all,none-all-all,B-C,yes,B-C,18,7,6270,NA
A143O8BE9O5OLG,English,all advances,grey,midnight,pink,Player A was the star player of the round,most-none-all,most-none-all,C,yes,C,-1,1,9694,yes
A143O8BE9O5OLG,English,all advances,lavender,seafoam,yellow,Player C messed up,all-all-none,all-all-none,A-B,yes,A-B,-3,7,20240,yes
A143O8BE9O5OLG,English,all advances,midnight,lightorange,lightblue,Player B will advance to the next round,all-few-none,all-few-none,A,yes,A,-2,1,9564,yes
A1RXG8RE0SJ4LC,English,any advances,pink,darkorange,midnight,No player hit all of his shots,none-none-half,none-none-half,C,yes,C,24,7,3847,NA
A1RXG8RE0SJ4LC,English,any advances,lightorange,royalblue,midnight,Player C will be disappointed,half-half-half,half-half-half,A-B-C,yes,A-B-C,25,2,5679,NA
A1RXG8RE0SJ4LC,English,any advances,lightorange,grey,yellow,None of the players will advance,none-none-all,none-none-all,C,yes,C,26,1,3446,NA
A1RXG8RE0SJ4LC,English,any advances,wheat,midnight,brown,Player C made shots,none-none-all,all-none-none,A,yes,A,27,1,4223,NA
A1RXG8RE0SJ4LC,English,any advances,darkorange,purple,seafoam,Two players will advance,all-all-all,all-all-all,A-B-C,yes,A-B-C,20,1,5031,NA
A1RXG8RE0SJ4LC,English,any advances,royalblue,yellow,lightorange,Player A will advance,none-half-half,half-none-half,A-C,yes,A-C,21,7,5256,NA
A1RXG8RE0SJ4LC,English,any advances,brown,wheat,midnight,Player A will be disappointed,none-half-all,half-all-none,A-B,yes,A-B,22,1,7030,NA
A1RXG8RE0SJ4LC,English,any advances,royalblue,seafoam,lightblue,Player A will be pleased,none-none-none,none-none-none,none,yes,none,23,1,3191,NA
A1RXG8RE0SJ4LC,English,any advances,brown,royalblue,lavender,Every player hit all of his shots,none-all-all,none-all-all,B-C,yes,B-C,28,1,4342,NA
A1RXG8RE0SJ4LC,English,any advances,wheat,brown,lightorange,At least one player will advance,none-half-half,half-none-half,A-C,yes,A-C,1,6,7566,NA
A1RXG8RE0SJ4LC,English,any advances,tan,grey,lavender,Player C will advance,all-all-all,all-all-all,A-B-C,yes,A-B-C,0,6,6675,NA
A1RXG8RE0SJ4LC,English,any advances,midnight,brown,seafoam,Player B will be disappointed,half-all-all,all-half-all,A-B-C,yes,A-B-C,3,2,10085,NA
A1RXG8RE0SJ4LC,English,any advances,brown,wheat,grey,One player will advance,none-none-none,none-none-none,none,yes,none,2,1,4318,NA
A1RXG8RE0SJ4LC,English,any advances,lightblue,midnight,wheat,All the players will advance,all-all-all,all-all-all,A-B-C,yes,A-B-C,5,7,5365,NA
A1RXG8RE0SJ4LC,English,any advances,darkorange,midnight,royalblue,Exactly one player hit some of his shots,none-none-half,none-none-half,C,yes,C,4,7,6407,NA
A1RXG8RE0SJ4LC,English,any advances,grey,lavender,lightorange,All of the players will advance,none-none-all,all-none-none,A,yes,A,7,1,6111,NA
A1RXG8RE0SJ4LC,English,any advances,midnight,royalblue,wheat,Player B made shots,none-half-all,all-none-half,A-C,yes,A-C,6,1,5839,NA
A1RXG8RE0SJ4LC,English,any advances,lightorange,grey,midnight,Three players will advance,none-none-none,none-none-none,none,yes,none,9,1,4214,NA
A1RXG8RE0SJ4LC,English,any advances,tan,royalblue,midnight,Exactly one player hit none of his shots,none-none-all,none-none-all,C,yes,C,8,1,5830,NA
A1RXG8RE0SJ4LC,English,any advances,seafoam,darkorange,grey,Player B will advance,half-half-all,half-all-half,A-B-C,yes,A-B-C,11,6,5759,NA
A1RXG8RE0SJ4LC,English,any advances,lightblue,purple,lightorange,Exactly one player hit all of his shots,half-half-half,half-half-half,A-B-C,yes,A-B-C,10,1,7728,NA
A1RXG8RE0SJ4LC,English,any advances,pink,darkorange,brown,Every player hit none of his shots,all-all-all,all-all-all,A-B-C,yes,A-B-C,13,1,8317,NA
A1RXG8RE0SJ4LC,English,any advances,wheat,grey,pink,Most of the players will advance,half-half-all,half-half-all,A-B-C,yes,A-B-C,12,4,7791,NA
A1RXG8RE0SJ4LC,English,any advances,darkorange,royalblue,lightorange,Player A made shots,none-none-all,none-all-none,B,yes,B,15,1,5326,NA
A1RXG8RE0SJ4LC,English,any advances,yellow,darkorange,purple,No player hit some of his shots,half-half-all,half-all-half,A-B-C,yes,A-B-C,14,1,6655,NA
A1RXG8RE0SJ4LC,English,any advances,royalblue,darkorange,purple,Player B will be pleased,none-half-all,all-none-half,A-C,yes,A-C,17,1,4694,NA
A1RXG8RE0SJ4LC,English,any advances,royalblue,lavender,pink,Every player hit some of his shots,none-none-half,none-half-none,B,yes,B,16,1,3999,NA
A1RXG8RE0SJ4LC,English,any advances,lightblue,lightorange,brown,Player C will be pleased,half-half-half,half-half-half,A-B-C,yes,A-B-C,19,6,5742,NA
A1RXG8RE0SJ4LC,English,any advances,tan,lavender,darkorange,No player hit none of his shots,half-half-half,half-half-half,A-B-C,yes,A-B-C,18,6,5479,NA
A1RXG8RE0SJ4LC,English,any advances,grey,midnight,lightblue,Player A was the star player of the round,most-none-all,most-none-all,A-C,yes,A-C,-1,1,8513,yes
A1RXG8RE0SJ4LC,English,any advances,grey,royalblue,lavender,Player C messed up,all-all-none,all-all-none,A-B,yes,A-B,-3,6,14015,yes
A1RXG8RE0SJ4LC,English,any advances,darkorange,seafoam,yellow,Player B will advance to the next round,all-few-none,all-few-none,A-B,yes,A-B,-2,6,14524,no
A3JJIP54HLSQL8,English,all advances,lightorange,midnight,purple,Player C will advance,all-all-all,all-all-all,A-B-C,yes,A-B-C,24,5,9151,NA
A3JJIP54HLSQL8,English,all advances,brown,lightorange,seafoam,Player A made shots,none-none-none,none-none-none,none,yes,none,25,1,4115,NA
A3JJIP54HLSQL8,English,all advances,brown,lightorange,tan,Player B will be disappointed,none-half-all,all-half-none,A,yes,A,26,6,6135,NA
A3JJIP54HLSQL8,English,all advances,purple,seafoam,tan,Exactly one player hit some of his shots,half-half-all,half-all-half,B,yes,B,27,2,7252,NA
A3JJIP54HLSQL8,English,all advances,lavender,brown,yellow,No player hit some of his shots,none-none-half,half-none-none,none,yes,none,20,3,6132,NA
A3JJIP54HLSQL8,English,all advances,pink,brown,darkorange,At least one player will advance,none-none-none,none-none-none,none,yes,none,21,1,4201,NA
A3JJIP54HLSQL8,English,all advances,darkorange,grey,pink,One player will advance,none-none-half,none-none-half,none,yes,none,22,1,2734,NA
A3JJIP54HLSQL8,English,all advances,brown,lavender,yellow,Player A will be disappointed,half-all-all,all-half-all,A-C,yes,A-C,23,1,6849,NA
A3JJIP54HLSQL8,English,all advances,tan,lavender,seafoam,Player C made shots,none-none-none,none-none-none,none,yes,none,28,1,4379,NA
A3JJIP54HLSQL8,English,all advances,midnight,purple,yellow,Every player hit some of his shots,none-none-none,none-none-none,none,yes,none,1,1,10549,NA
A3JJIP54HLSQL8,English,all advances,royalblue,darkorange,brown,Player A will advance,all-all-all,all-all-all,A-B-C,yes,A-B-C,0,7,9971,NA
A3JJIP54HLSQL8,English,all advances,lightblue,pink,purple,Exactly one player hit none of his shots,none-all-all,all-all-none,A-B,yes,A-B,3,6,11018,NA
A3JJIP54HLSQL8,English,all advances,brown,midnight,grey,Every player hit none of his shots,none-all-all,none-all-all,B-C,yes,B-C,2,1,7982,NA
A3JJIP54HLSQL8,English,all advances,lavender,grey,lightblue,Most of the players will advance,none-half-half,half-none-half,none,yes,none,5,1,7016,NA
A3JJIP54HLSQL8,English,all advances,brown,purple,darkorange,Three players will advance,half-half-all,half-half-all,C,yes,C,4,1,11432,NA
A3JJIP54HLSQL8,English,all advances,midnight,purple,royalblue,None of the players will advance,none-none-half,half-none-none,none,yes,none,7,6,6698,NA
A3JJIP54HLSQL8,English,all advances,wheat,lavender,seafoam,Player B made shots,none-half-half,half-none-half,none,yes,none,6,1,6702,NA
A3JJIP54HLSQL8,English,all advances,wheat,yellow,midnight,Player B will be pleased,none-all-all,all-none-all,A-C,yes,A-C,9,1,7851,NA
A3JJIP54HLSQL8,English,all advances,royalblue,wheat,darkorange,Every player hit all of his shots,none-none-all,all-none-none,A,yes,A,8,2,7284,NA
A3JJIP54HLSQL8,English,all advances,darkorange,pink,seafoam,Player C will be pleased,none-half-all,half-all-none,B,yes,B,11,1,6167,NA
A3JJIP54HLSQL8,English,all advances,lavender,purple,wheat,Player B will advance,none-half-half,half-none-half,none,yes,none,10,1,5431,NA
A3JJIP54HLSQL8,English,all advances,wheat,lavender,yellow,All the players will advance,none-all-all,none-all-all,B-C,yes,B-C,13,2,6982,NA
A3JJIP54HLSQL8,English,all advances,brown,yellow,darkorange,Exactly one player hit all of his shots,none-none-all,all-none-none,A,yes,A,12,7,7517,NA
A3JJIP54HLSQL8,English,all advances,darkorange,grey,royalblue,Player A will be pleased,none-none-all,none-all-none,B,yes,B,15,1,4697,NA
A3JJIP54HLSQL8,English,all advances,wheat,pink,lavender,Two players will advance,half-half-all,half-all-half,B,yes,B,14,1,8285,NA
A3JJIP54HLSQL8,English,all advances,purple,lightblue,yellow,All of the players will advance,none-none-half,none-half-none,none,yes,none,17,1,4522,NA
A3JJIP54HLSQL8,English,all advances,grey,purple,lightorange,Player C will be disappointed,half-all-all,all-all-half,A-B,yes,A-B,16,6,7150,NA
A3JJIP54HLSQL8,English,all advances,lightorange,purple,royalblue,No player hit all of his shots,none-half-all,half-none-all,C,yes,C,19,1,7666,NA
A3JJIP54HLSQL8,English,all advances,midnight,pink,wheat,No player hit none of his shots,none-none-none,none-none-none,none,yes,none,18,2,7865,NA
A3JJIP54HLSQL8,English,all advances,wheat,lightorange,grey,Player A was the star player of the round,most-none-all,most-none-all,C,yes,C,-1,1,10895,yes
A3JJIP54HLSQL8,English,all advances,royalblue,pink,lightblue,Player C messed up,all-all-none,all-all-none,A-B,yes,A-B,-3,7,103260,no
A3JJIP54HLSQL8,English,all advances,darkorange,purple,grey,Player B will advance to the next round,all-few-none,all-few-none,A,yes,A,-2,1,12458,yes
ACPPMD6DDE3T2,English,any advances,tan,brown,lightblue,Exactly one player hit all of his shots,half-half-half,half-half-half,A-B-C,yes,A-B-C,24,1,9330,NA
ACPPMD6DDE3T2,English,any advances,tan,lightorange,purple,Exactly one player hit none of his shots,half-all-all,all-half-all,A-B-C,yes,A-B-C,25,1,8550,NA
ACPPMD6DDE3T2,English,any advances,purple,yellow,lavender,None of the players will advance,half-half-all,half-all-half,A-B-C,yes,A-B-C,26,1,7633,NA
ACPPMD6DDE3T2,English,any advances,grey,purple,royalblue,Player B will be pleased,half-half-half,half-half-half,A-B-C,yes,A-B-C,27,7,8884,NA
ACPPMD6DDE3T2,English,any advances,lightorange,darkorange,wheat,Player B made shots,none-half-half,half-none-half,A-C,yes,A-C,20,1,23205,NA
ACPPMD6DDE3T2,English,any advances,lightorange,royalblue,darkorange,All the players will advance,none-half-all,half-all-none,A-B,yes,A-B,21,1,7602,NA
ACPPMD6DDE3T2,English,any advances,lightblue,grey,lavender,Player B will advance,none-half-half,half-half-none,A-B,yes,A-B,22,7,10460,NA
ACPPMD6DDE3T2,English,any advances,lavender,purple,brown,Player C made shots,none-none-all,all-none-none,A,yes,A,23,1,9736,NA
ACPPMD6DDE3T2,English,any advances,lightblue,seafoam,royalblue,Player C will be pleased,none-half-all,none-all-half,B-C,yes,B-C,28,7,11814,NA
ACPPMD6DDE3T2,English,any advances,yellow,grey,royalblue,All of the players will advance,none-all-all,all-none-all,A-C,yes,A-C,1,1,10238,NA
ACPPMD6DDE3T2,English,any advances,lavender,seafoam,pink,Exactly one player hit some of his shots,none-none-none,none-none-none,none,yes,none,0,1,10217,NA
ACPPMD6DDE3T2,English,any advances,grey,seafoam,tan,Player C will be disappointed,none-all-all,all-none-all,A-C,yes,A-C,3,2,10875,NA
ACPPMD6DDE3T2,English,any advances,grey,lavender,royalblue,At least one player will advance,none-all-all,all-all-none,A-B,yes,A-B,2,7,8101,NA
ACPPMD6DDE3T2,English,any advances,lightblue,midnight,seafoam,Every player hit all of his shots,half-half-all,half-half-all,A-B-C,yes,A-B-C,5,1,8724,NA
ACPPMD6DDE3T2,English,any advances,tan,midnight,yellow,One player will advance,all-all-all,all-all-all,A-B-C,yes,A-B-C,4,1,9520,NA
ACPPMD6DDE3T2,English,any advances,yellow,lightorange,brown,No player hit none of his shots,half-half-half,half-half-half,A-B-C,yes,A-B-C,7,2,9119,NA
ACPPMD6DDE3T2,English,any advances,wheat,lightblue,lavender,Most of the players will advance,half-all-all,all-half-all,A-B-C,yes,A-B-C,6,2,11252,NA
ACPPMD6DDE3T2,English,any advances,lavender,lightblue,tan,Two players will advance,half-half-half,half-half-half,A-B-C,yes,A-B-C,9,1,10583,NA
ACPPMD6DDE3T2,English,any advances,midnight,darkorange,tan,No player hit some of his shots,none-half-half,half-none-half,A-C,yes,A-C,8,1,10595,NA
ACPPMD6DDE3T2,English,any advances,midnight,purple,seafoam,Player B will be disappointed,all-all-all,all-all-all,A-B-C,yes,A-B-C,11,1,7570,NA
ACPPMD6DDE3T2,English,any advances,lightorange,midnight,grey,Player A will be disappointed,half-half-all,all-half-half,A-B-C,yes,A-B-C,10,1,13582,NA
ACPPMD6DDE3T2,English,any advances,yellow,royalblue,lavender,Player A will be pleased,all-all-all,all-all-all,A-B-C,yes,A-B-C,13,6,14206,NA
ACPPMD6DDE3T2,English,any advances,lavender,lightblue,wheat,Every player hit some of his shots,none-half-half,half-none-half,A-C,yes,A-C,12,1,7946,NA
ACPPMD6DDE3T2,English,any advances,lightorange,royalblue,lavender,Player C will advance,none-half-half,half-none-half,A-C,yes,A-C,15,7,7765,NA
ACPPMD6DDE3T2,English,any advances,purple,tan,grey,Every player hit none of his shots,none-half-all,half-none-all,A-C,yes,A-C,14,1,7585,NA
ACPPMD6DDE3T2,English,any advances,darkorange,lightblue,royalblue,Player A made shots,none-half-all,half-all-none,A-B,yes,A-B,17,6,11496,NA
ACPPMD6DDE3T2,English,any advances,pink,tan,yellow,No player hit all of his shots,none-half-all,half-none-all,A-C,yes,A-C,16,1,10141,NA
ACPPMD6DDE3T2,English,any advances,brown,lavender,yellow,Three players will advance,none-all-all,none-all-all,B-C,yes,B-C,19,1,8013,NA
ACPPMD6DDE3T2,English,any advances,darkorange,tan,grey,Player A will advance,none-half-all,half-all-none,A-B,yes,A-B,18,7,28665,NA
ACPPMD6DDE3T2,English,any advances,tan,midnight,lavender,Player A was the star player of the round,most-none-all,most-none-all,A-C,yes,A-C,-1,1,13761,yes
ACPPMD6DDE3T2,English,any advances,darkorange,purple,brown,Player C messed up,all-all-none,all-all-none,A-B,yes,A-B,-3,7,30362,no
ACPPMD6DDE3T2,English,any advances,lavender,royalblue,darkorange,Player B will advance to the next round,all-few-none,all-few-none,A-B,yes,A-B,-2,7,14157,yes
A115PR5C0O03UJ,english,any advances,wheat,tan,lightorange,Player A made shots,none-half-half,half-half-none,A-B,yes,A-B,24,7,6460,NA
A115PR5C0O03UJ,english,any advances,lavender,royalblue,lightorange,None of the players will advance,none-half-half,half-half-none,A-B,yes,A-B,25,1,6195,NA
A115PR5C0O03UJ,english,any advances,brown,grey,royalblue,Two players will advance,half-half-all,half-half-all,A-B-C,yes,A-B-C,26,2,7552,NA
A115PR5C0O03UJ,english,any advances,darkorange,midnight,purple,Player C will be disappointed,half-all-all,half-all-all,A-B-C,yes,A-B-C,27,1,9181,NA
A115PR5C0O03UJ,english,any advances,yellow,lavender,grey,Exactly one player hit all of his shots,half-all-all,all-half-all,A-B-C,yes,A-B-C,20,1,8687,NA
A115PR5C0O03UJ,english,any advances,grey,lightblue,purple,No player hit all of his shots,none-none-all,none-all-none,B,yes,B,21,1,6204,NA
A115PR5C0O03UJ,english,any advances,yellow,royalblue,midnight,Every player hit some of his shots,none-none-all,all-none-none,A,yes,A,22,1,4719,NA
A115PR5C0O03UJ,english,any advances,tan,pink,brown,Player B will be disappointed,half-all-all,half-all-all,A-B-C,yes,A-B-C,23,1,8538,NA
A115PR5C0O03UJ,english,any advances,yellow,lavender,grey,No player hit none of his shots,none-none-all,none-all-none,B,yes,B,28,1,6774,NA
A115PR5C0O03UJ,english,any advances,lavender,pink,grey,Most of the players will advance,half-half-half,half-half-half,A-B-C,yes,A-B-C,1,4,12552,NA
A115PR5C0O03UJ,english,any advances,wheat,pink,brown,Player C will be pleased,none-none-none,none-none-none,none,yes,none,0,1,11324,NA
A115PR5C0O03UJ,english,any advances,wheat,seafoam,midnight,Exactly one player hit none of his shots,none-none-none,none-none-none,none,yes,none,3,1,16618,NA
A115PR5C0O03UJ,english,any advances,darkorange,lightblue,grey,Player B will advance,none-half-half,half-half-none,A-B,yes,A-B,2,1,9167,NA
A115PR5C0O03UJ,english,any advances,lightblue,tan,seafoam,Every player hit all of his shots,none-none-none,none-none-none,none,yes,none,5,1,10457,NA
A115PR5C0O03UJ,english,any advances,royalblue,midnight,purple,Player C will advance,none-none-half,half-none-none,A,yes,A,4,1,8863,NA
A115PR5C0O03UJ,english,any advances,wheat,royalblue,tan,Player B made shots,none-none-half,none-half-none,B,yes,B,7,7,8022,NA
A115PR5C0O03UJ,english,any advances,lavender,purple,brown,All of the players will advance,all-all-all,all-all-all,A-B-C,yes,A-B-C,6,7,11010,NA
A115PR5C0O03UJ,english,any advances,brown,royalblue,lightblue,Player C made shots,none-half-all,none-all-half,B-C,yes,B-C,9,6,9678,NA
A115PR5C0O03UJ,english,any advances,pink,purple,midnight,One player will advance,none-half-all,all-half-none,A-B,yes,A-B,8,1,10947,NA
A115PR5C0O03UJ,english,any advances,darkorange,lavender,pink,No player hit some of his shots,none-all-all,all-all-none,A-B,yes,A-B,11,3,13107,NA
A115PR5C0O03UJ,english,any advances,yellow,lavender,royalblue,Player A will advance,half-half-half,half-half-half,A-B-C,yes,A-B-C,10,2,7321,NA
A115PR5C0O03UJ,english,any advances,lightblue,pink,darkorange,Exactly one player hit some of his shots,none-half-half,half-none-half,A-C,yes,A-C,13,1,9106,NA
A115PR5C0O03UJ,english,any advances,lightorange,seafoam,yellow,Player B will be pleased,half-half-all,half-half-all,A-B-C,yes,A-B-C,12,3,10063,NA
A115PR5C0O03UJ,english,any advances,lavender,grey,darkorange,Three players will advance,none-half-half,none-half-half,B-C,yes,B-C,15,1,7700,NA
A115PR5C0O03UJ,english,any advances,darkorange,lightorange,yellow,All the players will advance,half-all-all,all-all-half,A-B-C,yes,A-B-C,14,7,8559,NA
A115PR5C0O03UJ,english,any advances,seafoam,lightorange,midnight,Player A will be disappointed,none-all-all,all-none-all,A-C,yes,A-C,17,1,6969,NA
A115PR5C0O03UJ,english,any advances,purple,royalblue,wheat,At least one player will advance,all-all-all,all-all-all,A-B-C,no,A-B-C,16,5,16033,NA
A115PR5C0O03UJ,english,any advances,pink,purple,brown,Player A will be pleased,half-half-all,half-all-half,A-B-C,yes,A-B-C,19,2,9994,NA
A115PR5C0O03UJ,english,any advances,yellow,darkorange,brown,Every player hit none of his shots,none-none-all,all-none-none,A,yes,A,18,1,7037,NA
A115PR5C0O03UJ,english,any advances,seafoam,lightorange,grey,Player A was the star player of the round,most-none-all,most-none-all,A-C,yes,A-C,-1,1,19096,yes
A115PR5C0O03UJ,english,any advances,pink,grey,midnight,Player C messed up,all-all-none,all-all-none,A-B,yes,A-B,-3,6,26047,yes
A115PR5C0O03UJ,english,any advances,midnight,grey,yellow,Player B will advance to the next round,all-few-none,all-few-none,A-B,yes,A-B,-2,7,25147,yes
A2YKYAZYVWOXBO,ENGLISH,all advances,lightorange,lavender,brown,Every player hit all of his shots,none-none-none,none-none-none,none,yes,none,24,1,5296,NA
A2YKYAZYVWOXBO,ENGLISH,all advances,tan,brown,wheat,Player A made shots,half-half-all,all-half-half,A,yes,A,25,7,6474,NA
A2YKYAZYVWOXBO,ENGLISH,all advances,grey,wheat,lavender,Every player hit some of his shots,none-none-none,none-none-none,none,yes,none,26,1,4754,NA
A2YKYAZYVWOXBO,ENGLISH,all advances,lightblue,grey,tan,Every player hit none of his shots,none-all-all,all-all-none,A-B,yes,A-B,27,1,7932,NA
A2YKYAZYVWOXBO,ENGLISH,all advances,brown,royalblue,lavender,Exactly one player hit all of his shots,all-all-all,all-all-all,A-B-C,yes,A-B-C,20,3,8759,NA
A2YKYAZYVWOXBO,ENGLISH,all advances,lightblue,royalblue,grey,At least one player will advance,none-all-all,all-none-all,A-C,yes,A-C,21,5,11688,NA
A2YKYAZYVWOXBO,ENGLISH,all advances,purple,midnight,darkorange,Two players will advance,none-none-all,none-all-none,B,yes,B,22,1,4915,NA
A2YKYAZYVWOXBO,ENGLISH,all advances,brown,yellow,tan,Player C will be disappointed,all-all-all,all-all-all,A-B-C,yes,A-B-C,23,1,7711,NA
A2YKYAZYVWOXBO,ENGLISH,all advances,wheat,brown,seafoam,Exactly one player hit some of his shots,none-half-half,half-none-half,none,yes,none,28,7,11189,NA
A2YKYAZYVWOXBO,ENGLISH,all advances,wheat,royalblue,midnight,Player B will be pleased,none-none-none,none-none-none,none,yes,none,1,1,12087,NA
A2YKYAZYVWOXBO,ENGLISH,all advances,tan,yellow,purple,None of the players will advance,none-none-all,all-none-none,A,yes,A,0,1,10414,NA
A2YKYAZYVWOXBO,ENGLISH,all advances,tan,midnight,grey,Player C will advance,none-none-half,none-half-none,none,yes,none,3,1,7945,NA
A2YKYAZYVWOXBO,ENGLISH,all advances,lightblue,wheat,royalblue,Player C will be pleased,half-half-all,half-half-all,C,yes,C,2,7,8682,NA
A2YKYAZYVWOXBO,ENGLISH,all advances,seafoam,brown,grey,Player A will be disappointed,none-half-all,none-half-all,C,yes,C,5,7,8250,NA
A2YKYAZYVWOXBO,ENGLISH,all advances,seafoam,yellow,lightblue,All of the players will advance,none-none-all,all-none-none,A,yes,A,4,1,11164,NA
A2YKYAZYVWOXBO,ENGLISH,all advances,tan,darkorange,lightblue,All the players will advance,all-all-all,all-all-all,A-B-C,yes,A-B-C,7,7,9643,NA
A2YKYAZYVWOXBO,ENGLISH,all advances,purple,pink,brown,No player hit some of his shots,none-none-half,none-none-half,none,yes,none,6,2,12783,NA
A2YKYAZYVWOXBO,ENGLISH,all advances,wheat,brown,seafoam,Player A will be pleased,none-half-all,half-none-all,C,yes,C,9,1,6135,NA
A2YKYAZYVWOXBO,ENGLISH,all advances,lavender,purple,lightblue,Three players will advance,none-half-all,none-half-all,C,yes,C,8,1,7718,NA
A2YKYAZYVWOXBO,ENGLISH,all advances,brown,darkorange,lavender,Player C made shots,none-none-half,none-half-none,none,yes,none,11,1,8316,NA
A2YKYAZYVWOXBO,ENGLISH,all advances,pink,grey,brown,Most of the players will advance,none-all-all,all-all-none,A-B,yes,A-B,10,7,8343,NA
A2YKYAZYVWOXBO,ENGLISH,all advances,lightorange,yellow,brown,Player B will be disappointed,half-half-all,all-half-half,A,yes,A,13,7,5981,NA
A2YKYAZYVWOXBO,ENGLISH,all advances,grey,lightorange,darkorange,Exactly one player hit none of his shots,none-half-half,none-half-half,none,yes,none,12,7,9224,NA
A2YKYAZYVWOXBO,ENGLISH,all advances,pink,grey,lavender,Player B will advance,none-none-none,none-none-none,none,yes,none,15,1,4029,NA
A2YKYAZYVWOXBO,ENGLISH,all advances,darkorange,yellow,lightorange,Player A will advance,half-all-all,half-all-all,B-C,yes,B-C,14,1,6828,NA
A2YKYAZYVWOXBO,ENGLISH,all advances,wheat,purple,darkorange,No player hit none of his shots,none-all-all,all-all-none,A-B,yes,A-B,17,1,9862,NA
A2YKYAZYVWOXBO,ENGLISH,all advances,purple,royalblue,wheat,No player hit all of his shots,none-half-all,all-none-half,A,yes,A,16,1,7959,NA
A2YKYAZYVWOXBO,ENGLISH,all advances,lightblue,tan,darkorange,Player B made shots,none-none-all,all-none-none,A,yes,A,19,1,9022,NA
A2YKYAZYVWOXBO,ENGLISH,all advances,grey,pink,lightblue,One player will advance,none-none-none,none-none-none,none,yes,none,18,1,5253,NA
A2YKYAZYVWOXBO,ENGLISH,all advances,midnight,seafoam,purple,Player A was the star player of the round,most-none-all,most-none-all,C,yes,C,-1,1,11372,yes
A2YKYAZYVWOXBO,ENGLISH,all advances,grey,brown,royalblue,Player C messed up,all-all-none,all-all-none,A-B,no,A-B,-3,6,48297,no
A2YKYAZYVWOXBO,ENGLISH,all advances,grey,yellow,lightblue,Player B will advance to the next round,all-few-none,all-few-none,A,no,A,-2,1,29813,yes
A2ZE2IPHK152KA,English,all advances,grey,midnight,royalblue,Every player hit none of his shots,none-none-none,none-none-none,none,yes,none,24,7,4774,NA
A2ZE2IPHK152KA,English,all advances,wheat,tan,lightorange,Player B will be pleased,half-half-half,half-half-half,none,yes,none,25,1,4223,NA
A2ZE2IPHK152KA,English,all advances,tan,midnight,darkorange,Most of the players will advance,none-half-all,half-none-all,C,yes,C,26,1,8343,NA
A2ZE2IPHK152KA,English,all advances,pink,tan,wheat,Every player hit some of his shots,half-half-all,half-half-all,C,yes,C,27,7,5590,NA
A2ZE2IPHK152KA,English,all advances,lavender,lightorange,purple,Player B will be disappointed,all-all-all,all-all-all,A-B-C,yes,A-B-C,20,1,6952,NA
A2ZE2IPHK152KA,English,all advances,royalblue,grey,seafoam,None of the players will advance,half-all-all,all-half-all,A-C,yes,A-C,21,1,7206,NA
A2ZE2IPHK152KA,English,all advances,wheat,purple,darkorange,Player B will advance,half-all-all,all-half-all,A-C,yes,A-C,22,1,8327,NA
A2ZE2IPHK152KA,English,all advances,seafoam,midnight,yellow,All the players will advance,none-half-all,none-all-half,B,yes,B,23,1,4104,NA
A2ZE2IPHK152KA,English,all advances,yellow,lavender,darkorange,At least one player will advance,none-all-all,all-none-all,A-C,yes,A-C,28,7,13375,NA
A2ZE2IPHK152KA,English,all advances,purple,darkorange,yellow,Player C made shots,all-all-all,all-all-all,A-B-C,yes,A-B-C,1,7,9551,NA
A2ZE2IPHK152KA,English,all advances,midnight,darkorange,yellow,Player B made shots,half-all-all,half-all-all,B-C,yes,B-C,0,7,10253,NA
A2ZE2IPHK152KA,English,all advances,yellow,tan,purple,One player will advance,none-all-all,all-none-all,A-C,yes,A-C,3,1,10103,NA
A2ZE2IPHK152KA,English,all advances,grey,lavender,wheat,No player hit all of his shots,none-none-half,none-half-none,none,yes,none,2,7,11382,NA
A2ZE2IPHK152KA,English,all advances,seafoam,lavender,midnight,Exactly one player hit some of his shots,none-none-all,none-all-none,B,yes,B,5,7,7967,NA
A2ZE2IPHK152KA,English,all advances,royalblue,tan,lavender,No player hit some of his shots,half-half-half,half-half-half,none,yes,none,4,1,9197,NA
A2ZE2IPHK152KA,English,all advances,pink,tan,wheat,Exactly one player hit all of his shots,all-all-all,all-all-all,A-B-C,yes,A-B-C,7,1,8992,NA
A2ZE2IPHK152KA,English,all advances,yellow,grey,lightblue,Player C will be pleased,half-half-all,half-all-half,B,yes,B,6,1,5726,NA
A2ZE2IPHK152KA,English,all advances,wheat,seafoam,lavender,No player hit none of his shots,none-all-all,all-all-none,A-B,yes,A-B,9,1,9687,NA
A2ZE2IPHK152KA,English,all advances,purple,brown,grey,Exactly one player hit none of his shots,none-half-all,all-none-half,A,yes,A,8,7,14125,NA
A2ZE2IPHK152KA,English,all advances,midnight,tan,brown,Player A will be disappointed,none-half-half,none-half-half,none,yes,none,11,7,5544,NA
A2ZE2IPHK152KA,English,all advances,pink,royalblue,seafoam,Every player hit all of his shots,none-half-all,half-all-none,B,yes,B,10,1,4574,NA
A2ZE2IPHK152KA,English,all advances,seafoam,midnight,brown,Player A will advance,none-none-half,none-half-none,none,yes,none,13,1,8414,NA
A2ZE2IPHK152KA,English,all advances,lightorange,wheat,yellow,Player A made shots,half-half-half,half-half-half,none,yes,none,12,7,4927,NA
A2ZE2IPHK152KA,English,all advances,yellow,lavender,royalblue,Three players will advance,none-none-half,none-half-none,none,yes,none,15,1,3423,NA
A2ZE2IPHK152KA,English,all advances,brown,lightorange,seafoam,Two players will advance,none-none-none,none-none-none,none,yes,none,14,1,3152,NA
A2ZE2IPHK152KA,English,all advances,brown,lightorange,pink,All of the players will advance,half-half-all,half-half-all,C,yes,C,17,1,5408,NA
A2ZE2IPHK152KA,English,all advances,lavender,grey,purple,Player C will be disappointed,half-all-all,all-all-half,A-B,yes,A-B,16,7,8918,NA
A2ZE2IPHK152KA,English,all advances,grey,darkorange,wheat,Player C will advance,none-none-none,none-none-none,none,yes,none,19,1,4430,NA
A2ZE2IPHK152KA,English,all advances,seafoam,lavender,midnight,Player A will be pleased,half-all-all,all-all-half,A-B,yes,A-B,18,7,6334,NA
A2ZE2IPHK152KA,English,all advances,grey,lightorange,royalblue,Player A was the star player of the round,most-none-all,most-none-all,C,yes,C,-1,1,9934,yes
A2ZE2IPHK152KA,English,all advances,lightorange,purple,lavender,Player C messed up,all-all-none,all-all-none,A-B,no,A-B,-3,7,35671,no
A2ZE2IPHK152KA,English,all advances,lightorange,grey,brown,Player B will advance to the next round,all-few-none,all-few-none,A,yes,A,-2,1,10726,yes
A27Z95LLMJ3UOM,eNGLISH,any advances,royalblue,wheat,lightblue,Player B will be pleased,half-all-all,all-half-all,A-B-C,yes,A-B-C,24,4,6001,NA
A27Z95LLMJ3UOM,eNGLISH,any advances,pink,tan,royalblue,Three players will advance,half-half-half,half-half-half,A-B-C,yes,A-B-C,25,7,9875,NA
A27Z95LLMJ3UOM,eNGLISH,any advances,lightblue,lavender,seafoam,One player will advance,none-none-all,none-all-none,B,yes,B,26,7,5122,NA
A27Z95LLMJ3UOM,eNGLISH,any advances,lightblue,lavender,lightorange,Every player hit none of his shots,all-all-all,all-all-all,A-B-C,yes,A-B-C,27,1,7754,NA
A27Z95LLMJ3UOM,eNGLISH,any advances,darkorange,purple,grey,Most of the players will advance,none-none-all,none-none-all,C,yes,C,20,1,6573,NA
A27Z95LLMJ3UOM,eNGLISH,any advances,pink,royalblue,yellow,Exactly one player hit all of his shots,half-half-all,half-all-half,A-B-C,yes,A-B-C,21,7,10819,NA
A27Z95LLMJ3UOM,eNGLISH,any advances,lightblue,midnight,grey,None of the players will advance,none-half-all,none-all-half,B-C,yes,B-C,22,1,6293,NA
A27Z95LLMJ3UOM,eNGLISH,any advances,grey,lavender,yellow,Exactly one player hit none of his shots,half-all-all,all-half-all,A-B-C,yes,A-B-C,23,1,7400,NA
A27Z95LLMJ3UOM,eNGLISH,any advances,brown,lavender,royalblue,No player hit all of his shots,none-none-none,none-none-none,none,yes,none,28,7,4188,NA
A27Z95LLMJ3UOM,eNGLISH,any advances,lightblue,darkorange,wheat,Player A made shots,none-half-half,none-half-half,B-C,yes,B-C,1,1,9785,NA
A27Z95LLMJ3UOM,eNGLISH,any advances,darkorange,lightorange,brown,Player C will advance,none-all-all,all-none-all,A-C,yes,A-C,0,7,12608,NA
A27Z95LLMJ3UOM,eNGLISH,any advances,lightorange,lightblue,brown,Every player hit some of his shots,none-half-all,none-all-half,B-C,yes,B-C,3,1,16631,NA
A27Z95LLMJ3UOM,eNGLISH,any advances,midnight,lightorange,wheat,All the players will advance,half-all-all,all-all-half,A-B-C,yes,A-B-C,2,7,10457,NA
A27Z95LLMJ3UOM,eNGLISH,any advances,wheat,grey,darkorange,Player A will advance,all-all-all,all-all-all,A-B-C,yes,A-B-C,5,7,9050,NA
A27Z95LLMJ3UOM,eNGLISH,any advances,pink,purple,royalblue,Player A will be disappointed,none-none-half,none-none-half,C,yes,C,4,7,7004,NA
A27Z95LLMJ3UOM,eNGLISH,any advances,seafoam,grey,tan,Player B made shots,none-none-none,none-none-none,none,yes,none,7,1,9048,NA
A27Z95LLMJ3UOM,eNGLISH,any advances,wheat,pink,lightblue,At least one player will advance,half-half-half,half-half-half,A-B-C,yes,A-B-C,6,7,7242,NA
A27Z95LLMJ3UOM,eNGLISH,any advances,yellow,lightblue,seafoam,No player hit some of his shots,all-all-all,all-all-all,A-B-C,yes,A-B-C,9,1,8557,NA
A27Z95LLMJ3UOM,eNGLISH,any advances,darkorange,seafoam,tan,Player C made shots,half-all-all,half-all-all,A-B-C,yes,A-B-C,8,7,6431,NA
A27Z95LLMJ3UOM,eNGLISH,any advances,purple,pink,darkorange,Player B will be disappointed,half-half-half,half-half-half,A-B-C,yes,A-B-C,11,3,10583,NA
A27Z95LLMJ3UOM,eNGLISH,any advances,lightorange,grey,seafoam,Two players will advance,all-all-all,all-all-all,A-B-C,yes,A-B-C,10,1,8157,NA
A27Z95LLMJ3UOM,eNGLISH,any advances,grey,royalblue,tan,Player A will be pleased,half-all-all,all-all-half,A-B-C,yes,A-B-C,13,7,7038,NA
A27Z95LLMJ3UOM,eNGLISH,any advances,brown,wheat,royalblue,Player C will be pleased,none-none-all,none-all-none,B,yes,B,12,1,9147,NA
A27Z95LLMJ3UOM,eNGLISH,any advances,yellow,lavender,royalblue,Player B will advance,none-none-none,none-none-none,none,yes,none,15,1,6297,NA
A27Z95LLMJ3UOM,eNGLISH,any advances,seafoam,royalblue,lightblue,All of the players will advance,half-half-half,half-half-half,A-B-C,yes,A-B-C,14,7,7234,NA
A27Z95LLMJ3UOM,eNGLISH,any advances,pink,midnight,wheat,Exactly one player hit some of his shots,half-half-half,half-half-half,A-B-C,yes,A-B-C,17,1,11055,NA
A27Z95LLMJ3UOM,eNGLISH,any advances,pink,royalblue,lavender,Player C will be disappointed,half-half-all,all-half-half,A-B-C,yes,A-B-C,16,1,8855,NA
A27Z95LLMJ3UOM,eNGLISH,any advances,lightblue,purple,lavender,No player hit none of his shots,none-half-all,all-none-half,A-C,yes,A-C,19,1,11415,NA
A27Z95LLMJ3UOM,eNGLISH,any advances,grey,pink,midnight,Every player hit all of his shots,all-all-all,all-all-all,A-B-C,yes,A-B-C,18,7,8020,NA
A27Z95LLMJ3UOM,eNGLISH,any advances,lightorange,darkorange,pink,Player A was the star player of the round,most-none-all,most-none-all,A-C,yes,A-C,-1,1,12461,yes
A27Z95LLMJ3UOM,eNGLISH,any advances,tan,midnight,lightorange,Player C messed up,all-all-none,all-all-none,A-B,yes,A-B,-3,7,23485,yes
A27Z95LLMJ3UOM,eNGLISH,any advances,brown,grey,royalblue,Player B will advance to the next round,all-few-none,all-few-none,A-B,yes,A-B,-2,7,14910,yes
A31A20Z5P0UJBH,English,any advances,grey,wheat,tan,Three players will advance,half-all-all,all-half-all,A-B-C,yes,A-B-C,24,7,8718,NA
A31A20Z5P0UJBH,English,any advances,pink,brown,midnight,All the players will advance,half-half-all,all-half-half,A-B-C,yes,A-B-C,25,7,7750,NA
A31A20Z5P0UJBH,English,any advances,pink,lightorange,lavender,Every player hit all of his shots,half-half-all,half-all-half,A-B-C,yes,A-B-C,26,1,8373,NA
A31A20Z5P0UJBH,English,any advances,purple,lightorange,darkorange,Player C will be disappointed,half-all-all,all-all-half,A-B-C,yes,A-B-C,27,1,12150,NA
A31A20Z5P0UJBH,English,any advances,royalblue,pink,lightorange,Exactly one player hit all of his shots,none-none-half,none-none-half,C,yes,C,20,1,8311,NA
A31A20Z5P0UJBH,English,any advances,brown,grey,lightorange,Player C will be pleased,none-half-half,half-half-none,A-B,yes,A-B,21,1,8341,NA
A31A20Z5P0UJBH,English,any advances,pink,lightorange,seafoam,Player A will be disappointed,none-none-none,none-none-none,none,yes,none,22,7,4933,NA
A31A20Z5P0UJBH,English,any advances,lightblue,lavender,lightorange,All of the players will advance,all-all-all,all-all-all,A-B-C,yes,A-B-C,23,7,8357,NA
A31A20Z5P0UJBH,English,any advances,lightblue,lavender,wheat,Two players will advance,none-none-half,half-none-none,A,yes,A,28,1,5042,NA
A31A20Z5P0UJBH,English,any advances,lightorange,yellow,lavender,Every player hit some of his shots,none-none-all,none-all-none,B,yes,B,1,1,11269,NA
A31A20Z5P0UJBH,English,any advances,wheat,seafoam,royalblue,At least one player will advance,half-half-all,half-half-all,A-B-C,yes,A-B-C,0,7,19041,NA
A31A20Z5P0UJBH,English,any advances,grey,brown,yellow,Player B will be pleased,none-all-all,all-all-none,A-B,yes,A-B,3,7,9453,NA
A31A20Z5P0UJBH,English,any advances,lightblue,lightorange,midnight,Exactly one player hit some of his shots,half-all-all,all-half-all,A-B-C,yes,A-B-C,2,1,8309,NA
A31A20Z5P0UJBH,English,any advances,wheat,brown,pink,Player A will advance,none-half-all,all-half-none,A-B,yes,A-B,5,7,8877,NA
A31A20Z5P0UJBH,English,any advances,lavender,wheat,lightblue,Player A made shots,none-none-half,none-half-none,B,yes,B,4,1,6502,NA
A31A20Z5P0UJBH,English,any advances,tan,pink,lightblue,Player B made shots,all-all-all,all-all-all,A-B-C,yes,A-B-C,7,7,7615,NA
A31A20Z5P0UJBH,English,any advances,seafoam,midnight,tan,Player C made shots,half-half-all,half-half-all,A-B-C,yes,A-B-C,6,7,7865,NA
A31A20Z5P0UJBH,English,any advances,wheat,seafoam,grey,No player hit some of his shots,none-all-all,none-all-all,B-C,yes,B-C,9,1,5455,NA
A31A20Z5P0UJBH,English,any advances,lightorange,midnight,grey,Player B will be disappointed,all-all-all,all-all-all,A-B-C,yes,A-B-C,8,1,7508,NA
A31A20Z5P0UJBH,English,any advances,lavender,midnight,yellow,Player B will advance,none-none-all,all-none-none,A,yes,A,11,1,5648,NA
A31A20Z5P0UJBH,English,any advances,grey,brown,pink,Player C will advance,half-all-all,all-all-half,A-B-C,yes,A-B-C,10,7,6646,NA
A31A20Z5P0UJBH,English,any advances,darkorange,midnight,seafoam,Exactly one player hit none of his shots,none-half-all,half-none-all,A-C,yes,A-C,13,7,7859,NA
A31A20Z5P0UJBH,English,any advances,lightorange,grey,pink,Player A will be pleased,none-all-all,all-all-none,A-B,yes,A-B,12,7,6950,NA
A31A20Z5P0UJBH,English,any advances,purple,seafoam,pink,Most of the players will advance,half-half-all,half-all-half,A-B-C,yes,A-B-C,15,6,8810,NA
A31A20Z5P0UJBH,English,any advances,yellow,brown,wheat,No player hit none of his shots,none-half-half,half-none-half,A-C,no,A-C,14,1,13629,NA
A31A20Z5P0UJBH,English,any advances,yellow,midnight,lightblue,No player hit all of his shots,none-none-all,all-none-none,A,yes,A,17,1,13772,NA
A31A20Z5P0UJBH,English,any advances,purple,lavender,brown,Every player hit none of his shots,none-all-all,all-all-none,A-B,yes,A-B,16,1,6749,NA
A31A20Z5P0UJBH,English,any advances,brown,lightblue,grey,None of the players will advance,none-none-all,all-none-none,A,yes,A,19,1,6484,NA
A31A20Z5P0UJBH,English,any advances,yellow,lightblue,lavender,One player will advance,none-none-all,none-all-none,B,yes,B,18,7,5765,NA
A31A20Z5P0UJBH,English,any advances,lightorange,royalblue,seafoam,Player A was the star player of the round,most-none-all,most-none-all,A-C,yes,A-C,-1,1,13910,yes
A31A20Z5P0UJBH,English,any advances,grey,lavender,lightblue,Player C messed up,all-all-none,all-all-none,A-B,no,A-B,-3,7,83294,yes
A31A20Z5P0UJBH,English,any advances,pink,grey,yellow,Player B will advance to the next round,all-few-none,all-few-none,A-B,yes,A-B,-2,7,13092,yes
A2CR59RLQA8CUQ,english,any advances,lightblue,lavender,lightorange,Three players will advance,none-half-half,half-none-half,A-C,yes,A-C,24,1,10470,NA
A2CR59RLQA8CUQ,english,any advances,lavender,brown,lightblue,Most of the players will advance,none-half-all,none-half-all,B-C,yes,B-C,25,7,11217,NA
A2CR59RLQA8CUQ,english,any advances,yellow,lightblue,wheat,None of the players will advance,half-all-all,half-all-all,A-B-C,yes,A-B-C,26,1,9674,NA
A2CR59RLQA8CUQ,english,any advances,tan,purple,yellow,Every player hit some of his shots,half-half-all,all-half-half,A-B-C,yes,A-B-C,27,7,8791,NA
A2CR59RLQA8CUQ,english,any advances,tan,brown,midnight,Two players will advance,none-none-all,all-none-none,A,yes,A,20,1,7300,NA
A2CR59RLQA8CUQ,english,any advances,wheat,pink,lavender,At least one player will advance,half-half-half,half-half-half,A-B-C,yes,A-B-C,21,1,10833,NA
A2CR59RLQA8CUQ,english,any advances,darkorange,seafoam,lavender,Player B will advance,none-half-half,half-half-none,A-B,yes,A-B,22,7,9956,NA
A2CR59RLQA8CUQ,english,any advances,yellow,lavender,wheat,Every player hit none of his shots,half-half-all,all-half-half,A-B-C,yes,A-B-C,23,1,23564,NA
A2CR59RLQA8CUQ,english,any advances,purple,wheat,brown,All the players will advance,half-half-half,half-half-half,A-B-C,yes,A-B-C,28,7,7891,NA
A2CR59RLQA8CUQ,english,any advances,lightorange,wheat,royalblue,Player A will be disappointed,all-all-all,all-all-all,A-B-C,yes,A-B-C,1,1,26462,NA
A2CR59RLQA8CUQ,english,any advances,seafoam,lavender,tan,Every player hit all of his shots,half-all-all,half-all-all,A-B-C,no,A-B-C,0,1,55379,NA
A2CR59RLQA8CUQ,english,any advances,royalblue,lightorange,purple,No player hit all of his shots,none-half-all,half-all-none,A-B,yes,A-B,3,1,25959,NA
A2CR59RLQA8CUQ,english,any advances,wheat,brown,tan,Player C will be disappointed,none-none-none,none-none-none,none,yes,none,2,7,17608,NA
A2CR59RLQA8CUQ,english,any advances,purple,lavender,darkorange,Player B made shots,none-none-half,none-half-none,B,yes,B,5,7,17860,NA
A2CR59RLQA8CUQ,english,any advances,brown,midnight,seafoam,All of the players will advance,half-half-all,all-half-half,A-B-C,yes,A-B-C,4,7,14946,NA
A2CR59RLQA8CUQ,english,any advances,grey,yellow,purple,Player C will be pleased,none-none-all,none-all-none,B,yes,B,7,1,15697,NA
A2CR59RLQA8CUQ,english,any advances,royalblue,brown,lightblue,Player C will advance,none-half-half,none-half-half,B-C,yes,B-C,6,7,16116,NA
A2CR59RLQA8CUQ,english,any advances,pink,midnight,grey,Player B will be disappointed,all-all-all,all-all-all,A-B-C,yes,A-B-C,9,1,12756,NA
A2CR59RLQA8CUQ,english,any advances,royalblue,grey,tan,Player A will be pleased,none-half-all,all-half-none,A-B,yes,A-B,8,1,9222,NA
A2CR59RLQA8CUQ,english,any advances,lightorange,grey,tan,Exactly one player hit none of his shots,none-half-half,none-half-half,B-C,yes,B-C,11,7,13372,NA
A2CR59RLQA8CUQ,english,any advances,brown,wheat,lightblue,Player A will advance,none-none-half,none-half-none,B,yes,B,10,1,7865,NA
A2CR59RLQA8CUQ,english,any advances,grey,seafoam,lavender,No player hit some of his shots,none-none-none,none-none-none,none,yes,none,13,7,12919,NA
A2CR59RLQA8CUQ,english,any advances,brown,wheat,grey,No player hit none of his shots,none-half-all,none-half-all,B-C,no,B-C,12,1,17595,NA
A2CR59RLQA8CUQ,english,any advances,yellow,lavender,purple,Exactly one player hit all of his shots,half-half-half,half-half-half,A-B-C,yes,A-B-C,15,1,13299,NA
A2CR59RLQA8CUQ,english,any advances,grey,brown,pink,Player C made shots,none-half-all,half-none-all,A-C,no,A-C,14,7,19136,NA
A2CR59RLQA8CUQ,english,any advances,grey,seafoam,pink,Player A made shots,half-half-half,half-half-half,A-B-C,yes,A-B-C,17,7,9623,NA
A2CR59RLQA8CUQ,english,any advances,grey,pink,lavender,Player B will be pleased,none-half-all,half-none-all,A-C,yes,A-C,16,1,12404,NA
A2CR59RLQA8CUQ,english,any advances,darkorange,grey,wheat,One player will advance,half-half-all,half-half-all,A-B-C,yes,A-B-C,19,1,12028,NA
A2CR59RLQA8CUQ,english,any advances,midnight,wheat,lightblue,Exactly one player hit some of his shots,none-none-none,none-none-none,none,yes,none,18,1,8053,NA
A2CR59RLQA8CUQ,english,any advances,midnight,tan,yellow,Player A was the star player of the round,most-none-all,most-none-all,A-C,yes,A-C,-1,1,192580,no
A2CR59RLQA8CUQ,english,any advances,purple,seafoam,lavender,Player C messed up,all-all-none,all-all-none,A-B,no,A-B,-3,7,70181,yes
A2CR59RLQA8CUQ,english,any advances,grey,darkorange,midnight,Player B will advance to the next round,all-few-none,all-few-none,A-B,no,A-B,-2,7,55274,no
A24D9J4PQVWUNI,English,any advances,pink,darkorange,purple,No player hit none of his shots,none-half-all,half-none-all,A-C,yes,A-C,24,1,17126,NA
A24D9J4PQVWUNI,English,any advances,wheat,pink,yellow,Player C made shots,none-none-half,none-half-none,B,yes,B,25,1,9169,NA
A24D9J4PQVWUNI,English,any advances,midnight,seafoam,grey,Player A will be pleased,none-none-half,none-none-half,C,yes,C,26,1,13712,NA
A24D9J4PQVWUNI,English,any advances,pink,tan,lavender,Every player hit none of his shots,none-none-half,half-none-none,A,yes,A,27,1,14567,NA
A24D9J4PQVWUNI,English,any advances,pink,royalblue,brown,Exactly one player hit none of his shots,none-none-none,none-none-none,none,yes,none,20,1,13510,NA
A24D9J4PQVWUNI,English,any advances,lavender,darkorange,lightorange,Two players will advance,half-all-all,half-all-all,A-B-C,yes,A-B-C,21,1,12617,NA
A24D9J4PQVWUNI,English,any advances,grey,seafoam,midnight,One player will advance,none-half-all,all-half-none,A-B,yes,A-B,22,1,31993,NA
A24D9J4PQVWUNI,English,any advances,wheat,tan,darkorange,Every player hit all of his shots,none-none-none,none-none-none,none,yes,none,23,1,9202,NA
A24D9J4PQVWUNI,English,any advances,tan,yellow,seafoam,Player B will be pleased,none-none-all,none-none-all,C,yes,C,28,1,13256,NA
A24D9J4PQVWUNI,English,any advances,brown,royalblue,grey,Exactly one player hit all of his shots,all-all-all,all-all-all,A-B-C,yes,A-B-C,1,1,23558,NA
A24D9J4PQVWUNI,English,any advances,royalblue,lightblue,yellow,Player C will be disappointed,none-none-all,none-all-none,B,yes,B,0,6,51922,NA
A24D9J4PQVWUNI,English,any advances,royalblue,lightblue,pink,Player B will advance,half-all-all,all-all-half,A-B-C,yes,A-B-C,3,7,33396,NA
A24D9J4PQVWUNI,English,any advances,yellow,royalblue,lavender,Player A will advance,none-none-none,none-none-none,none,yes,none,2,1,29450,NA
A24D9J4PQVWUNI,English,any advances,wheat,lavender,yellow,None of the players will advance,none-none-all,all-none-none,A,yes,A,5,1,21046,NA
A24D9J4PQVWUNI,English,any advances,lightorange,pink,midnight,Exactly one player hit some of his shots,none-none-half,half-none-none,A,yes,A,4,7,23669,NA
A24D9J4PQVWUNI,English,any advances,pink,brown,midnight,No player hit all of his shots,none-none-none,none-none-none,none,yes,none,7,7,19351,NA
A24D9J4PQVWUNI,English,any advances,grey,royalblue,pink,Player B made shots,all-all-all,all-all-all,A-B-C,yes,A-B-C,6,6,33999,NA
A24D9J4PQVWUNI,English,any advances,purple,lavender,pink,Player C will advance,none-half-half,none-half-half,B-C,yes,B-C,9,7,39792,NA
A24D9J4PQVWUNI,English,any advances,tan,purple,lightblue,Every player hit some of his shots,none-none-none,none-none-none,none,yes,none,8,1,12731,NA
A24D9J4PQVWUNI,English,any advances,wheat,seafoam,midnight,Player B will be disappointed,half-all-all,all-half-all,A-B-C,yes,A-B-C,11,4,18269,NA
A24D9J4PQVWUNI,English,any advances,darkorange,pink,tan,All the players will advance,all-all-all,all-all-all,A-B-C,yes,A-B-C,10,7,15037,NA
A24D9J4PQVWUNI,English,any advances,wheat,royalblue,tan,Most of the players will advance,half-half-half,half-half-half,A-B-C,yes,A-B-C,13,1,12674,NA
A24D9J4PQVWUNI,English,any advances,royalblue,lightorange,midnight,Three players will advance,none-none-half,half-none-none,A,yes,A,12,1,16700,NA
A24D9J4PQVWUNI,English,any advances,seafoam,grey,lavender,All of the players will advance,half-all-all,half-all-all,A-B-C,yes,A-B-C,15,7,10411,NA
A24D9J4PQVWUNI,English,any advances,grey,lightblue,purple,At least one player will advance,half-half-all,half-all-half,A-B-C,yes,A-B-C,14,3,20309,NA
A24D9J4PQVWUNI,English,any advances,brown,tan,midnight,Player A will be disappointed,none-none-none,none-none-none,none,yes,none,17,5,28396,NA
A24D9J4PQVWUNI,English,any advances,yellow,pink,lavender,No player hit some of his shots,all-all-all,all-all-all,A-B-C,yes,A-B-C,16,1,8123,NA
A24D9J4PQVWUNI,English,any advances,lavender,brown,seafoam,Player C will be pleased,none-none-none,none-none-none,none,yes,none,19,1,46781,NA
A24D9J4PQVWUNI,English,any advances,wheat,darkorange,lightblue,Player A made shots,half-half-all,half-all-half,A-B-C,yes,A-B-C,18,6,24961,NA
A24D9J4PQVWUNI,English,any advances,midnight,lightorange,lightblue,Player A was the star player of the round,most-none-all,most-none-all,A-C,yes,A-C,-1,1,35252,yes
A24D9J4PQVWUNI,English,any advances,royalblue,seafoam,darkorange,Player C messed up,all-all-none,all-all-none,A-B,yes,A-B,-3,7,66470,yes
A24D9J4PQVWUNI,English,any advances,purple,lavender,grey,Player B will advance to the next round,all-few-none,all-few-none,A-B,no,A-B,-2,7,35371,yes
A2TF0Z1W30YK5M,english,all advances,royalblue,tan,yellow,All of the players will advance,half-all-all,half-all-all,B-C,yes,B-C,24,1,5616,NA
A2TF0Z1W30YK5M,english,all advances,lightorange,seafoam,pink,Exactly one player hit some of his shots,half-all-all,all-all-half,A-B,yes,A-B,25,1,5303,NA
A2TF0Z1W30YK5M,english,all advances,lightorange,darkorange,pink,No player hit all of his shots,none-none-none,none-none-none,none,yes,none,26,6,7722,NA
A2TF0Z1W30YK5M,english,all advances,darkorange,purple,lightblue,Player A made shots,half-half-all,half-half-all,C,yes,C,27,7,7544,NA
A2TF0Z1W30YK5M,english,all advances,pink,tan,royalblue,Player C will be pleased,none-half-all,half-none-all,C,yes,C,20,7,4241,NA
A2TF0Z1W30YK5M,english,all advances,grey,purple,brown,None of the players will advance,half-all-all,all-all-half,A-B,yes,A-B,21,1,5165,NA
A2TF0Z1W30YK5M,english,all advances,grey,royalblue,tan,At least one player will advance,all-all-all,all-all-all,A-B-C,yes,A-B-C,22,6,6255,NA
A2TF0Z1W30YK5M,english,all advances,tan,yellow,purple,Player B will advance,none-half-half,half-none-half,none,yes,none,23,1,4598,NA
A2TF0Z1W30YK5M,english,all advances,midnight,wheat,purple,Player A will be disappointed,none-none-half,none-none-half,none,yes,none,28,6,5573,NA
A2TF0Z1W30YK5M,english,all advances,seafoam,pink,darkorange,Player B made shots,half-half-half,half-half-half,none,yes,none,1,7,10910,NA
A2TF0Z1W30YK5M,english,all advances,midnight,royalblue,pink,One player will advance,none-all-all,all-all-none,A-B,yes,A-B,0,1,8640,NA
A2TF0Z1W30YK5M,english,all advances,royalblue,darkorange,yellow,Every player hit all of his shots,half-half-all,half-all-half,B,yes,B,3,1,6533,NA
A2TF0Z1W30YK5M,english,all advances,purple,lightblue,lavender,Player B will be disappointed,half-half-all,half-all-half,B,yes,B,2,1,7972,NA
A2TF0Z1W30YK5M,english,all advances,yellow,lightorange,lightblue,Player A will be pleased,none-none-half,half-none-none,none,yes,none,5,2,7773,NA
A2TF0Z1W30YK5M,english,all advances,lavender,pink,darkorange,Exactly one player hit none of his shots,none-none-half,none-none-half,none,yes,none,4,1,7020,NA
A2TF0Z1W30YK5M,english,all advances,midnight,pink,wheat,Every player hit some of his shots,none-none-all,none-none-all,C,yes,C,7,1,5805,NA
A2TF0Z1W30YK5M,english,all advances,brown,darkorange,lightorange,Player C will be disappointed,half-half-half,half-half-half,none,yes,none,6,6,9181,NA
A2TF0Z1W30YK5M,english,all advances,yellow,wheat,purple,Player A will advance,all-all-all,all-all-all,A-B-C,yes,A-B-C,9,4,6584,NA
A2TF0Z1W30YK5M,english,all advances,tan,midnight,lightblue,Two players will advance,none-none-all,none-all-none,B,yes,B,8,1,5249,NA
A2TF0Z1W30YK5M,english,all advances,royalblue,tan,yellow,Player B will be pleased,none-none-half,half-none-none,none,yes,none,11,1,5079,NA
A2TF0Z1W30YK5M,english,all advances,lightorange,yellow,grey,Player C made shots,all-all-all,all-all-all,A-B-C,yes,A-B-C,10,5,6958,NA
A2TF0Z1W30YK5M,english,all advances,midnight,lightorange,pink,Exactly one player hit all of his shots,none-none-none,none-none-none,none,yes,none,13,1,2761,NA
A2TF0Z1W30YK5M,english,all advances,tan,lightblue,seafoam,Most of the players will advance,none-none-all,none-all-none,B,yes,B,12,1,5279,NA
A2TF0Z1W30YK5M,english,all advances,purple,lightorange,grey,All the players will advance,half-half-half,half-half-half,none,yes,none,15,1,3447,NA
A2TF0Z1W30YK5M,english,all advances,pink,purple,lightorange,Player C will advance,half-all-all,all-half-all,A-C,no,A-C,14,6,17059,NA
A2TF0Z1W30YK5M,english,all advances,grey,seafoam,lightorange,No player hit none of his shots,none-half-all,half-none-all,C,yes,C,17,1,8286,NA
A2TF0Z1W30YK5M,english,all advances,brown,yellow,pink,No player hit some of his shots,half-half-all,half-half-all,C,yes,C,16,1,8073,NA
A2TF0Z1W30YK5M,english,all advances,pink,seafoam,lightorange,Every player hit none of his shots,half-half-all,all-half-half,A,yes,A,19,1,5080,NA
A2TF0Z1W30YK5M,english,all advances,pink,midnight,brown,Three players will advance,all-all-all,all-all-all,A-B-C,yes,A-B-C,18,7,6356,NA
A2TF0Z1W30YK5M,english,all advances,brown,tan,lightblue,Player A was the star player of the round,most-none-all,most-none-all,C,yes,C,-1,1,14744,yes
A2TF0Z1W30YK5M,english,all advances,tan,darkorange,wheat,Player C messed up,all-all-none,all-all-none,A-B,yes,A-B,-3,6,54666,no
A2TF0Z1W30YK5M,english,all advances,pink,royalblue,grey,Player B will advance to the next round,all-few-none,all-few-none,A,yes,A,-2,1,10154,yes
ALGF1OT6QF05Q,English,any advances,tan,lightblue,purple,Three players will advance,none-none-none,none-none-none,none,yes,none,24,1,4136,NA
ALGF1OT6QF05Q,English,any advances,brown,seafoam,yellow,Every player hit all of his shots,none-half-half,none-half-half,B-C,yes,B-C,25,1,4823,NA
ALGF1OT6QF05Q,English,any advances,lightblue,yellow,wheat,All the players will advance,half-all-all,all-all-half,A-B-C,no,A-B-C,26,6,17362,NA
ALGF1OT6QF05Q,English,any advances,purple,yellow,grey,No player hit none of his shots,none-all-all,all-none-all,A-C,yes,A-C,27,3,9492,NA
ALGF1OT6QF05Q,English,any advances,royalblue,lightorange,lavender,Player B will be pleased,none-half-all,half-all-none,A-B,yes,A-B,20,4,6724,NA
ALGF1OT6QF05Q,English,any advances,tan,darkorange,seafoam,Player A will be disappointed,none-none-none,none-none-none,none,yes,none,21,5,5467,NA
ALGF1OT6QF05Q,English,any advances,purple,pink,darkorange,Exactly one player hit all of his shots,none-none-none,none-none-none,none,yes,none,22,1,4267,NA
ALGF1OT6QF05Q,English,any advances,lavender,lightblue,darkorange,At least one player will advance,none-all-all,none-all-all,B-C,yes,B-C,23,5,5850,NA
ALGF1OT6QF05Q,English,any advances,purple,pink,wheat,Every player hit none of his shots,half-half-half,half-half-half,A-B-C,yes,A-B-C,28,2,6476,NA
ALGF1OT6QF05Q,English,any advances,darkorange,lightblue,midnight,Player C will advance,none-none-half,half-none-none,A,yes,A,1,1,11813,NA
ALGF1OT6QF05Q,English,any advances,darkorange,royalblue,tan,Player B will be disappointed,half-half-all,half-half-all,A-B-C,yes,A-B-C,0,4,30707,NA
ALGF1OT6QF05Q,English,any advances,brown,lightblue,grey,All of the players will advance,half-half-all,half-all-half,A-B-C,yes,A-B-C,3,7,16778,NA
ALGF1OT6QF05Q,English,any advances,royalblue,pink,midnight,Exactly one player hit some of his shots,half-half-half,half-half-half,A-B-C,no,A-B-C,2,1,49462,NA
ALGF1OT6QF05Q,English,any advances,lightblue,lavender,purple,Player A made shots,none-all-all,all-none-all,A-C,yes,A-C,5,5,13785,NA
ALGF1OT6QF05Q,English,any advances,royalblue,pink,lightorange,No player hit some of his shots,none-none-none,none-none-none,none,yes,none,4,7,5986,NA
ALGF1OT6QF05Q,English,any advances,lightorange,seafoam,lightblue,None of the players will advance,half-half-all,half-all-half,A-B-C,yes,A-B-C,7,1,10931,NA
ALGF1OT6QF05Q,English,any advances,purple,seafoam,tan,Every player hit some of his shots,none-all-all,none-all-all,B-C,yes,B-C,6,1,11879,NA
ALGF1OT6QF05Q,English,any advances,seafoam,tan,royalblue,Player A will advance,half-half-all,all-half-half,A-B-C,yes,A-B-C,9,5,9877,NA
ALGF1OT6QF05Q,English,any advances,yellow,lavender,darkorange,Player B will advance,none-none-none,none-none-none,none,yes,none,8,1,5313,NA
ALGF1OT6QF05Q,English,any advances,grey,brown,lightblue,Player A will be pleased,half-half-half,half-half-half,A-B-C,yes,A-B-C,11,4,7864,NA
ALGF1OT6QF05Q,English,any advances,midnight,brown,seafoam,Player C will be disappointed,half-half-half,half-half-half,A-B-C,yes,A-B-C,10,2,9413,NA
ALGF1OT6QF05Q,English,any advances,darkorange,seafoam,lightblue,Player B made shots,all-all-all,all-all-all,A-B-C,yes,A-B-C,13,5,7324,NA
ALGF1OT6QF05Q,English,any advances,lavender,pink,grey,One player will advance,none-none-half,half-none-none,A,yes,A,12,7,6844,NA
ALGF1OT6QF05Q,English,any advances,yellow,brown,seafoam,Player C will be pleased,half-half-half,half-half-half,A-B-C,yes,A-B-C,15,4,8548,NA
ALGF1OT6QF05Q,English,any advances,yellow,grey,lightblue,Player C made shots,none-none-none,none-none-none,none,yes,none,14,1,4945,NA
ALGF1OT6QF05Q,English,any advances,lightblue,midnight,pink,Most of the players will advance,none-half-all,all-none-half,A-C,yes,A-C,17,5,8189,NA
ALGF1OT6QF05Q,English,any advances,lavender,tan,seafoam,No player hit all of his shots,none-none-none,none-none-none,none,yes,none,16,7,6061,NA
ALGF1OT6QF05Q,English,any advances,pink,brown,lightorange,Exactly one player hit none of his shots,all-all-all,all-all-all,A-B-C,yes,A-B-C,19,1,11787,NA
ALGF1OT6QF05Q,English,any advances,lavender,royalblue,tan,Two players will advance,half-half-half,half-half-half,A-B-C,yes,A-B-C,18,1,11991,NA
ALGF1OT6QF05Q,English,any advances,seafoam,brown,yellow,Player A was the star player of the round,most-none-all,most-none-all,A-C,yes,A-C,-1,1,22437,no
ALGF1OT6QF05Q,English,any advances,darkorange,lightorange,tan,Player C messed up,all-all-none,all-all-none,A-B,yes,A-B,-3,7,26027,yes
ALGF1OT6QF05Q,English,any advances,wheat,lightblue,purple,Player B will advance to the next round,all-few-none,all-few-none,A-B,no,A-B,-2,7,87445,no
AUPUE5IPJ5GWP,english,any advances,royalblue,darkorange,grey,Player C will advance,half-half-all,all-half-half,A-B-C,yes,A-B-C,24,5,8908,NA
AUPUE5IPJ5GWP,english,any advances,royalblue,seafoam,lavender,Player B will advance,none-none-none,none-none-none,none,yes,none,25,1,6807,NA
AUPUE5IPJ5GWP,english,any advances,tan,royalblue,wheat,Player A will advance,none-half-all,half-none-all,A-C,yes,A-C,26,5,5951,NA
AUPUE5IPJ5GWP,english,any advances,tan,pink,wheat,Every player hit some of his shots,half-all-all,half-all-all,A-B-C,yes,A-B-C,27,6,7894,NA
AUPUE5IPJ5GWP,english,any advances,brown,seafoam,pink,All of the players will advance,half-half-all,all-half-half,A-B-C,yes,A-B-C,20,7,6143,NA
AUPUE5IPJ5GWP,english,any advances,seafoam,darkorange,wheat,Player B will be pleased,none-none-none,none-none-none,none,yes,none,21,1,4790,NA
AUPUE5IPJ5GWP,english,any advances,lightblue,lavender,grey,Exactly one player hit none of his shots,none-none-half,none-none-half,C,yes,C,22,1,8372,NA
AUPUE5IPJ5GWP,english,any advances,lightorange,wheat,brown,Player A made shots,none-half-all,none-half-all,B-C,yes,B-C,23,1,5538,NA
AUPUE5IPJ5GWP,english,any advances,seafoam,tan,lightorange,All the players will advance,none-none-none,none-none-none,none,no,none,28,1,16588,NA
AUPUE5IPJ5GWP,english,any advances,yellow,pink,grey,Three players will advance,none-none-none,none-none-none,none,yes,none,1,1,7371,NA
AUPUE5IPJ5GWP,english,any advances,seafoam,purple,tan,At least one player will advance,half-half-all,half-half-all,A-B-C,yes,A-B-C,0,2,13895,NA
AUPUE5IPJ5GWP,english,any advances,royalblue,seafoam,brown,Every player hit none of his shots,none-none-all,none-all-none,B,yes,B,3,1,9364,NA
AUPUE5IPJ5GWP,english,any advances,pink,wheat,lavender,Player C will be pleased,half-half-half,half-half-half,A-B-C,yes,A-B-C,2,5,8930,NA
AUPUE5IPJ5GWP,english,any advances,seafoam,royalblue,pink,None of the players will advance,all-all-all,all-all-all,A-B-C,yes,A-B-C,5,1,8500,NA
AUPUE5IPJ5GWP,english,any advances,lightblue,purple,lightorange,Player A will be pleased,none-none-half,none-half-none,B,yes,B,4,2,6492,NA
AUPUE5IPJ5GWP,english,any advances,royalblue,pink,wheat,Player C made shots,half-half-half,half-half-half,A-B-C,yes,A-B-C,7,4,9035,NA
AUPUE5IPJ5GWP,english,any advances,brown,wheat,pink,Player C will be disappointed,half-all-all,all-half-all,A-B-C,yes,A-B-C,6,2,8464,NA
AUPUE5IPJ5GWP,english,any advances,brown,royalblue,lightblue,Player A will be disappointed,none-all-all,all-all-none,A-B,yes,A-B,9,2,5986,NA
AUPUE5IPJ5GWP,english,any advances,lightorange,purple,darkorange,No player hit all of his shots,half-all-all,half-all-all,A-B-C,yes,A-B-C,8,1,8554,NA
AUPUE5IPJ5GWP,english,any advances,brown,royalblue,darkorange,One player will advance,all-all-all,all-all-all,A-B-C,yes,A-B-C,11,2,7585,NA
AUPUE5IPJ5GWP,english,any advances,tan,grey,midnight,Most of the players will advance,half-all-all,all-all-half,A-B-C,yes,A-B-C,10,2,6389,NA
AUPUE5IPJ5GWP,english,any advances,royalblue,wheat,grey,Two players will advance,half-all-all,half-all-all,A-B-C,yes,A-B-C,13,4,8346,NA
AUPUE5IPJ5GWP,english,any advances,brown,lightblue,purple,No player hit some of his shots,none-half-all,none-half-all,B-C,yes,B-C,12,1,8148,NA
AUPUE5IPJ5GWP,english,any advances,lightorange,seafoam,purple,Player B made shots,none-none-none,none-none-none,none,no,none,15,1,14660,NA
AUPUE5IPJ5GWP,english,any advances,brown,purple,wheat,No player hit none of his shots,half-all-all,all-all-half,A-B-C,yes,A-B-C,14,2,7984,NA
AUPUE5IPJ5GWP,english,any advances,pink,lightblue,seafoam,Every player hit all of his shots,none-half-half,half-none-half,A-C,yes,A-C,17,2,6020,NA
AUPUE5IPJ5GWP,english,any advances,darkorange,lavender,lightblue,Player B will be disappointed,none-all-all,none-all-all,B-C,yes,B-C,16,2,6158,NA
AUPUE5IPJ5GWP,english,any advances,pink,purple,darkorange,Exactly one player hit all of his shots,none-half-all,half-none-all,A-C,yes,A-C,19,6,12287,NA
AUPUE5IPJ5GWP,english,any advances,royalblue,yellow,midnight,Exactly one player hit some of his shots,none-half-half,half-half-none,A-B,yes,A-B,18,1,9262,NA
AUPUE5IPJ5GWP,english,any advances,seafoam,wheat,brown,Player A was the star player of the round,most-none-all,most-none-all,A-C,yes,A-C,-1,2,12420,yes
AUPUE5IPJ5GWP,english,any advances,darkorange,yellow,wheat,Player C messed up,all-all-none,all-all-none,A-B,yes,A-B,-3,6,57972,no
AUPUE5IPJ5GWP,english,any advances,seafoam,darkorange,lightblue,Player B will advance to the next round,all-few-none,all-few-none,A-B,yes,A-B,-2,6,8622,yes
A166F80J9PQ134,English,all advances,lightblue,wheat,pink,No player hit some of his shots,all-all-all,all-all-all,A-B-C,yes,A-B-C,24,2,13466,NA
A166F80J9PQ134,English,all advances,royalblue,wheat,lightblue,Player B made shots,none-none-none,none-none-none,none,yes,none,25,1,4551,NA
A166F80J9PQ134,English,all advances,darkorange,royalblue,tan,No player hit none of his shots,half-half-all,all-half-half,A,yes,A,26,7,4852,NA
A166F80J9PQ134,English,all advances,yellow,purple,darkorange,At least one player will advance,half-half-half,half-half-half,none,yes,none,27,1,2856,NA
A166F80J9PQ134,English,all advances,royalblue,lightblue,tan,Every player hit some of his shots,none-half-all,half-none-all,C,yes,C,20,1,4612,NA
A166F80J9PQ134,English,all advances,grey,yellow,purple,Exactly one player hit all of his shots,half-all-all,all-all-half,A-B,yes,A-B,21,1,4762,NA
A166F80J9PQ134,English,all advances,lightorange,lavender,seafoam,No player hit all of his shots,none-none-all,all-none-none,A,yes,A,22,1,3652,NA
A166F80J9PQ134,English,all advances,purple,lightorange,grey,All of the players will advance,half-all-all,half-all-all,B-C,yes,B-C,23,1,4490,NA
A166F80J9PQ134,English,all advances,midnight,seafoam,tan,Player C will advance,all-all-all,all-all-all,A-B-C,yes,A-B-C,28,6,6917,NA
A166F80J9PQ134,English,all advances,wheat,midnight,royalblue,Player B will be pleased,none-none-none,none-none-none,none,yes,none,1,1,4953,NA
A166F80J9PQ134,English,all advances,tan,seafoam,brown,Player A will advance,none-all-all,all-none-all,A-C,yes,A-C,0,4,6581,NA
A166F80J9PQ134,English,all advances,lavender,pink,tan,Two players will advance,none-all-all,all-all-none,A-B,yes,A-B,3,6,6172,NA
A166F80J9PQ134,English,all advances,grey,tan,yellow,Player A will be disappointed,none-all-all,all-all-none,A-B,yes,A-B,2,1,8195,NA
A166F80J9PQ134,English,all advances,royalblue,darkorange,lavender,Player C will be pleased,none-half-half,none-half-half,none,yes,none,5,1,4981,NA
A166F80J9PQ134,English,all advances,lightblue,tan,seafoam,Player B will be disappointed,half-half-half,half-half-half,none,yes,none,4,5,6217,NA
A166F80J9PQ134,English,all advances,grey,seafoam,tan,Player A made shots,none-half-all,none-all-half,B,yes,B,7,4,7386,NA
A166F80J9PQ134,English,all advances,yellow,lightblue,brown,Every player hit none of his shots,half-all-all,half-all-all,B-C,yes,B-C,6,1,6546,NA
A166F80J9PQ134,English,all advances,tan,midnight,seafoam,Exactly one player hit none of his shots,none-half-half,half-none-half,none,yes,none,9,6,7500,NA
A166F80J9PQ134,English,all advances,grey,yellow,tan,Every player hit all of his shots,none-none-all,all-none-none,A,yes,A,8,1,4165,NA
A166F80J9PQ134,English,all advances,pink,lavender,purple,Exactly one player hit some of his shots,half-all-all,half-all-all,B-C,yes,B-C,11,3,5938,NA
A166F80J9PQ134,English,all advances,pink,yellow,tan,Player C will be disappointed,half-half-half,half-half-half,none,yes,none,10,5,4652,NA
A166F80J9PQ134,English,all advances,wheat,midnight,seafoam,Player C made shots,all-all-all,all-all-all,A-B-C,yes,A-B-C,13,4,7836,NA
A166F80J9PQ134,English,all advances,lavender,lightblue,purple,Player B will advance,half-all-all,all-half-all,A-C,yes,A-C,12,1,5291,NA
A166F80J9PQ134,English,all advances,lavender,grey,darkorange,Most of the players will advance,half-half-half,half-half-half,none,yes,none,15,1,3321,NA
A166F80J9PQ134,English,all advances,yellow,pink,darkorange,Three players will advance,none-all-all,all-none-all,A-C,yes,A-C,14,1,4442,NA
A166F80J9PQ134,English,all advances,seafoam,pink,lightorange,None of the players will advance,all-all-all,all-all-all,A-B-C,yes,A-B-C,17,1,5259,NA
A166F80J9PQ134,English,all advances,yellow,lavender,darkorange,All the players will advance,none-none-all,none-all-none,B,yes,B,16,1,3459,NA
A166F80J9PQ134,English,all advances,tan,darkorange,brown,One player will advance,none-half-all,half-all-none,B,yes,B,19,7,3794,NA
A166F80J9PQ134,English,all advances,midnight,pink,grey,Player A will be pleased,half-all-all,half-all-all,B-C,yes,B-C,18,1,4132,NA
A166F80J9PQ134,English,all advances,lavender,seafoam,pink,Player A was the star player of the round,most-none-all,most-none-all,C,yes,C,-1,1,9715,yes
A166F80J9PQ134,English,all advances,tan,grey,lavender,Player C messed up,all-all-none,all-all-none,A-B,yes,A-B,-3,7,12312,yes
A166F80J9PQ134,English,all advances,brown,lightorange,wheat,Player B will advance to the next round,all-few-none,all-few-none,A,yes,A,-2,1,8406,yes
AFIG9SL1GXEAR,English,all advances,purple,seafoam,grey,Player C will be disappointed,none-none-all,all-none-none,A,yes,A,24,7,6964,NA
AFIG9SL1GXEAR,English,all advances,darkorange,brown,purple,All the players will advance,half-all-all,all-all-half,A-B,yes,A-B,25,1,12455,NA
AFIG9SL1GXEAR,English,all advances,grey,royalblue,darkorange,Player C will advance,none-none-none,none-none-none,none,yes,none,26,1,5142,NA
AFIG9SL1GXEAR,English,all advances,pink,grey,seafoam,Player B will be pleased,none-none-all,none-all-none,B,yes,B,27,1,6398,NA
AFIG9SL1GXEAR,English,all advances,grey,tan,lightorange,Player B made shots,none-none-all,none-none-all,C,yes,C,20,1,10691,NA
AFIG9SL1GXEAR,English,all advances,grey,brown,wheat,Every player hit some of his shots,half-all-all,all-all-half,A-B,yes,A-B,21,7,9572,NA
AFIG9SL1GXEAR,English,all advances,grey,brown,lightblue,No player hit none of his shots,half-half-half,half-half-half,none,yes,none,22,7,36120,NA
AFIG9SL1GXEAR,English,all advances,midnight,wheat,pink,Player B will advance,half-half-all,all-half-half,A,no,A,23,1,29134,NA
AFIG9SL1GXEAR,English,all advances,purple,brown,lightorange,Three players will advance,half-half-half,half-half-half,none,yes,none,28,1,8792,NA
AFIG9SL1GXEAR,English,all advances,lightorange,tan,lightblue,Player A will be disappointed,none-half-all,none-half-all,C,yes,C,1,7,13249,NA
AFIG9SL1GXEAR,English,all advances,midnight,seafoam,tan,Player C will be pleased,none-half-half,half-none-half,none,yes,none,0,1,27145,NA
AFIG9SL1GXEAR,English,all advances,grey,royalblue,lavender,Exactly one player hit all of his shots,none-half-all,none-half-all,C,yes,C,3,7,9217,NA
AFIG9SL1GXEAR,English,all advances,wheat,yellow,lightblue,None of the players will advance,none-none-none,none-none-none,none,yes,none,2,7,9731,NA
AFIG9SL1GXEAR,English,all advances,tan,darkorange,pink,Player A made shots,none-half-all,all-half-none,A,yes,A,5,6,12838,NA
AFIG9SL1GXEAR,English,all advances,brown,royalblue,yellow,Two players will advance,none-half-all,none-all-half,B,yes,B,4,1,10476,NA
AFIG9SL1GXEAR,English,all advances,grey,purple,brown,Exactly one player hit none of his shots,none-all-all,none-all-all,B-C,yes,B-C,7,7,13060,NA
AFIG9SL1GXEAR,English,all advances,lavender,seafoam,midnight,Exactly one player hit some of his shots,none-all-all,none-all-all,B-C,yes,B-C,6,1,13167,NA
AFIG9SL1GXEAR,English,all advances,lightorange,seafoam,midnight,All of the players will advance,none-none-half,half-none-none,none,yes,none,9,1,10865,NA
AFIG9SL1GXEAR,English,all advances,tan,lavender,midnight,Every player hit none of his shots,half-half-half,half-half-half,none,yes,none,8,1,14425,NA
AFIG9SL1GXEAR,English,all advances,darkorange,lightblue,wheat,No player hit some of his shots,none-half-all,half-all-none,B,yes,B,11,1,9126,NA
AFIG9SL1GXEAR,English,all advances,brown,purple,lavender,At least one player will advance,half-all-all,half-all-all,B-C,yes,B-C,10,7,23651,NA
AFIG9SL1GXEAR,English,all advances,brown,purple,royalblue,Player A will be pleased,none-none-half,half-none-none,none,yes,none,13,2,11117,NA
AFIG9SL1GXEAR,English,all advances,royalblue,lavender,pink,No player hit all of his shots,none-none-half,half-none-none,none,yes,none,12,7,11099,NA
AFIG9SL1GXEAR,English,all advances,midnight,darkorange,lightblue,Player C made shots,none-none-all,none-all-none,B,yes,B,15,1,8129,NA
AFIG9SL1GXEAR,English,all advances,lightorange,lightblue,yellow,Player A will advance,none-none-half,half-none-none,none,yes,none,14,1,8969,NA
AFIG9SL1GXEAR,English,all advances,darkorange,wheat,lightorange,Most of the players will advance,half-half-half,half-half-half,none,yes,none,17,1,125490,NA
AFIG9SL1GXEAR,English,all advances,yellow,midnight,lightblue,One player will advance,half-half-all,half-all-half,B,yes,B,16,7,6409,NA
AFIG9SL1GXEAR,English,all advances,pink,brown,grey,Player B will be disappointed,none-none-none,none-none-none,none,yes,none,19,6,9032,NA
AFIG9SL1GXEAR,English,all advances,purple,midnight,wheat,Every player hit all of his shots,half-half-all,half-all-half,B,yes,B,18,1,9574,NA
AFIG9SL1GXEAR,English,all advances,midnight,pink,tan,Player A was the star player of the round,most-none-all,most-none-all,C,yes,C,-1,1,17259,yes
AFIG9SL1GXEAR,English,all advances,royalblue,purple,lavender,Player C messed up,all-all-none,all-all-none,A-B,yes,A-B,-3,6,66233,no
AFIG9SL1GXEAR,English,all advances,brown,lavender,pink,Player B will advance to the next round,all-few-none,all-few-none,A,yes,A,-2,1,18946,yes
AK467M5VTG7N4,Tibetan,any advances,purple,grey,brown,Three players will advance,none-half-all,none-half-all,B-C,yes,B-C,24,1,4910,NA
AK467M5VTG7N4,Tibetan,any advances,lightblue,wheat,pink,Player C made shots,none-none-half,none-half-none,B,yes,B,25,1,4658,NA
AK467M5VTG7N4,Tibetan,any advances,darkorange,wheat,brown,Every player hit some of his shots,none-none-all,all-none-none,A,yes,A,26,1,4619,NA
AK467M5VTG7N4,Tibetan,any advances,wheat,purple,lightblue,Two players will advance,none-all-all,all-none-all,A-C,yes,A-C,27,7,17534,NA
AK467M5VTG7N4,Tibetan,any advances,yellow,purple,lightorange,Exactly one player hit none of his shots,none-none-all,all-none-none,A,yes,A,20,1,9349,NA
AK467M5VTG7N4,Tibetan,any advances,tan,royalblue,lightorange,All of the players will advance,none-none-half,none-none-half,C,yes,C,21,1,3530,NA
AK467M5VTG7N4,Tibetan,any advances,tan,brown,darkorange,Player A will be pleased,half-all-all,all-all-half,A-B-C,yes,A-B-C,22,1,7302,NA
AK467M5VTG7N4,Tibetan,any advances,brown,purple,darkorange,Player B will advance,none-none-half,half-none-none,A,yes,A,23,1,6248,NA
AK467M5VTG7N4,Tibetan,any advances,seafoam,lightblue,purple,Player C will advance,half-all-all,all-all-half,A-B-C,yes,A-B-C,28,7,7392,NA
AK467M5VTG7N4,Tibetan,any advances,lightorange,pink,tan,No player hit all of his shots,half-half-all,half-all-half,A-B-C,yes,A-B-C,1,1,9621,NA
AK467M5VTG7N4,Tibetan,any advances,lavender,purple,tan,Player B will be pleased,half-half-all,half-all-half,A-B-C,yes,A-B-C,0,7,7441,NA
AK467M5VTG7N4,Tibetan,any advances,yellow,purple,tan,Player A made shots,none-none-none,none-none-none,none,yes,none,3,1,11336,NA
AK467M5VTG7N4,Tibetan,any advances,yellow,lightblue,pink,None of the players will advance,half-all-all,half-all-all,A-B-C,yes,A-B-C,2,1,5727,NA
AK467M5VTG7N4,Tibetan,any advances,brown,pink,lightorange,One player will advance,half-half-all,half-all-half,A-B-C,yes,A-B-C,5,1,9501,NA
AK467M5VTG7N4,Tibetan,any advances,lightorange,yellow,grey,Player B will be disappointed,half-half-all,all-half-half,A-B-C,yes,A-B-C,4,4,7256,NA
AK467M5VTG7N4,Tibetan,any advances,lightorange,seafoam,midnight,No player hit some of his shots,half-half-all,all-half-half,A-B-C,yes,A-B-C,7,1,9268,NA
AK467M5VTG7N4,Tibetan,any advances,grey,purple,royalblue,Player C will be pleased,none-half-half,half-half-none,A-B,yes,A-B,6,1,6274,NA
AK467M5VTG7N4,Tibetan,any advances,lightblue,wheat,purple,Player B made shots,all-all-all,all-all-all,A-B-C,yes,A-B-C,9,7,5872,NA
AK467M5VTG7N4,Tibetan,any advances,grey,pink,seafoam,No player hit none of his shots,all-all-all,all-all-all,A-B-C,yes,A-B-C,8,7,10106,NA
AK467M5VTG7N4,Tibetan,any advances,grey,wheat,seafoam,Most of the players will advance,none-none-none,none-none-none,none,yes,none,11,1,2918,NA
AK467M5VTG7N4,Tibetan,any advances,seafoam,yellow,grey,Player A will advance,none-none-none,none-none-none,none,yes,none,10,1,5053,NA
AK467M5VTG7N4,Tibetan,any advances,midnight,brown,purple,Every player hit none of his shots,none-none-half,none-half-none,B,yes,B,13,1,7288,NA
AK467M5VTG7N4,Tibetan,any advances,grey,brown,seafoam,Player C will be disappointed,none-none-none,none-none-none,none,yes,none,12,7,2794,NA
AK467M5VTG7N4,Tibetan,any advances,lightblue,grey,pink,All the players will advance,none-none-all,all-none-none,A,yes,A,15,1,4623,NA
AK467M5VTG7N4,Tibetan,any advances,purple,pink,yellow,At least one player will advance,half-half-all,half-half-all,A-B-C,yes,A-B-C,14,7,6716,NA
AK467M5VTG7N4,Tibetan,any advances,pink,tan,wheat,Exactly one player hit some of his shots,half-half-all,half-half-all,A-B-C,yes,A-B-C,17,1,8246,NA
AK467M5VTG7N4,Tibetan,any advances,purple,yellow,royalblue,Every player hit all of his shots,half-half-half,half-half-half,A-B-C,yes,A-B-C,16,1,9158,NA
AK467M5VTG7N4,Tibetan,any advances,royalblue,brown,lightblue,Player A will be disappointed,half-half-half,half-half-half,A-B-C,yes,A-B-C,19,2,8774,NA
AK467M5VTG7N4,Tibetan,any advances,grey,wheat,royalblue,Exactly one player hit all of his shots,none-none-half,none-none-half,C,yes,C,18,1,7020,NA
AK467M5VTG7N4,Tibetan,any advances,darkorange,lavender,yellow,Player A was the star player of the round,most-none-all,most-none-all,A-C,yes,A-C,-1,1,13427,yes
AK467M5VTG7N4,Tibetan,any advances,yellow,darkorange,midnight,Player C messed up,all-all-none,all-all-none,A-B,yes,A-B,-3,6,17228,yes
AK467M5VTG7N4,Tibetan,any advances,royalblue,brown,darkorange,Player B will advance to the next round,all-few-none,all-few-none,A-B,yes,A-B,-2,6,13944,yes
A2YCMT5BPA0AG9,english,all advances,brown,lavender,seafoam,Player C will be disappointed,none-none-all,all-none-none,A,yes,A,24,7,5570,NA
A2YCMT5BPA0AG9,english,all advances,darkorange,tan,purple,Every player hit none of his shots,half-half-all,half-all-half,B,no,B,25,1,14867,NA
A2YCMT5BPA0AG9,english,all advances,pink,lightblue,tan,At least one player will advance,half-half-all,all-half-half,A,yes,A,26,7,8019,NA
A2YCMT5BPA0AG9,english,all advances,darkorange,yellow,lightblue,No player hit some of his shots,none-none-all,none-all-none,B,yes,B,27,1,7461,NA
A2YCMT5BPA0AG9,english,all advances,brown,purple,wheat,Every player hit all of his shots,none-half-all,half-all-none,B,yes,B,20,1,5248,NA
A2YCMT5BPA0AG9,english,all advances,purple,pink,royalblue,One player will advance,none-half-half,half-none-half,none,yes,none,21,1,4651,NA
A2YCMT5BPA0AG9,english,all advances,purple,midnight,lightblue,Player A will be pleased,all-all-all,all-all-all,A-B-C,yes,A-B-C,22,6,8365,NA
A2YCMT5BPA0AG9,english,all advances,lavender,darkorange,lightorange,Exactly one player hit none of his shots,none-half-half,none-half-half,none,yes,none,23,1,7562,NA
A2YCMT5BPA0AG9,english,all advances,tan,lightblue,yellow,Exactly one player hit some of his shots,none-none-all,none-all-none,B,yes,B,28,7,6938,NA
A2YCMT5BPA0AG9,english,all advances,midnight,lavender,pink,Player A will be disappointed,half-all-all,all-all-half,A-B,yes,A-B,1,1,16716,NA
A2YCMT5BPA0AG9,english,all advances,lightorange,seafoam,grey,Two players will advance,half-all-all,all-half-all,A-C,yes,A-C,0,7,12263,NA
A2YCMT5BPA0AG9,english,all advances,lavender,tan,grey,Player A made shots,none-none-all,all-none-none,A,yes,A,3,6,13786,NA
A2YCMT5BPA0AG9,english,all advances,purple,grey,wheat,Player A will advance,none-half-half,half-half-none,none,no,none,2,1,32102,NA
A2YCMT5BPA0AG9,english,all advances,darkorange,lightorange,midnight,Three players will advance,none-none-half,none-half-none,none,yes,none,5,1,7131,NA
A2YCMT5BPA0AG9,english,all advances,brown,midnight,tan,Player B will be disappointed,none-half-all,none-all-half,B,yes,B,4,1,6272,NA
A2YCMT5BPA0AG9,english,all advances,lightblue,midnight,brown,Player C will advance,none-none-none,none-none-none,none,yes,none,7,1,5124,NA
A2YCMT5BPA0AG9,english,all advances,tan,darkorange,lavender,Player B will be pleased,half-all-all,all-half-all,A-C,yes,A-C,6,1,10036,NA
A2YCMT5BPA0AG9,english,all advances,lavender,grey,brown,Exactly one player hit all of his shots,all-all-all,all-all-all,A-B-C,yes,A-B-C,9,1,9087,NA
A2YCMT5BPA0AG9,english,all advances,lightblue,grey,seafoam,Every player hit some of his shots,none-all-all,none-all-all,B-C,yes,B-C,8,1,8163,NA
A2YCMT5BPA0AG9,english,all advances,purple,pink,royalblue,Player B will advance,none-half-all,all-half-none,A,yes,A,11,1,4459,NA
A2YCMT5BPA0AG9,english,all advances,brown,midnight,lightorange,Most of the players will advance,none-none-all,all-none-none,A,yes,A,10,1,6114,NA
A2YCMT5BPA0AG9,english,all advances,darkorange,grey,purple,Player B made shots,none-all-all,all-all-none,A-B,yes,A-B,13,6,8703,NA
A2YCMT5BPA0AG9,english,all advances,lightblue,grey,tan,All the players will advance,half-half-all,all-half-half,A,yes,A,12,1,5179,NA
A2YCMT5BPA0AG9,english,all advances,brown,wheat,lightorange,All of the players will advance,all-all-all,all-all-all,A-B-C,yes,A-B-C,15,7,6992,NA
A2YCMT5BPA0AG9,english,all advances,seafoam,midnight,pink,No player hit all of his shots,half-half-all,half-half-all,C,yes,C,14,1,6747,NA
A2YCMT5BPA0AG9,english,all advances,lavender,tan,yellow,No player hit none of his shots,none-none-none,none-none-none,none,yes,none,17,1,10954,NA
A2YCMT5BPA0AG9,english,all advances,pink,wheat,purple,None of the players will advance,half-half-half,half-half-half,none,yes,none,16,7,5573,NA
A2YCMT5BPA0AG9,english,all advances,lightblue,darkorange,lavender,Player C made shots,none-half-all,half-all-none,B,yes,B,19,1,8300,NA
A2YCMT5BPA0AG9,english,all advances,seafoam,wheat,lightblue,Player C will be pleased,none-half-all,half-all-none,B,yes,B,18,1,7339,NA
A2YCMT5BPA0AG9,english,all advances,lightblue,seafoam,pink,Player A was the star player of the round,most-none-all,most-none-all,C,yes,C,-1,1,16211,yes
A2YCMT5BPA0AG9,english,all advances,yellow,purple,seafoam,Player C messed up,all-all-none,all-all-none,A-B,yes,A-B,-3,6,26584,yes
A2YCMT5BPA0AG9,english,all advances,yellow,brown,grey,Player B will advance to the next round,all-few-none,all-few-none,A,yes,A,-2,2,35303,yes
A2AXBJM4UHJ3YD,English,any advances,yellow,lightblue,lavender,Player A will be pleased,none-none-half,half-none-none,A,yes,A,24,7,8586,NA
A2AXBJM4UHJ3YD,English,any advances,purple,tan,darkorange,Player B will be disappointed,none-all-all,all-none-all,A-C,yes,A-C,25,7,5302,NA
A2AXBJM4UHJ3YD,English,any advances,tan,seafoam,lightblue,Player B made shots,none-none-half,none-half-none,B,yes,B,26,7,6216,NA
A2AXBJM4UHJ3YD,English,any advances,grey,purple,lightorange,Exactly one player hit none of his shots,none-all-all,all-all-none,A-B,yes,A-B,27,7,7296,NA
A2AXBJM4UHJ3YD,English,any advances,wheat,lightblue,brown,Player B will be pleased,all-all-all,all-all-all,A-B-C,yes,A-B-C,20,7,8459,NA
A2AXBJM4UHJ3YD,English,any advances,lightblue,pink,midnight,Exactly one player hit some of his shots,none-half-half,half-half-none,A-B,yes,A-B,21,7,6788,NA
A2AXBJM4UHJ3YD,English,any advances,royalblue,pink,midnight,Player C will advance,none-all-all,all-none-all,A-C,yes,A-C,22,7,9951,NA
A2AXBJM4UHJ3YD,English,any advances,purple,grey,darkorange,At least one player will advance,none-none-half,none-half-none,B,yes,B,23,7,4563,NA
A2AXBJM4UHJ3YD,English,any advances,grey,lightblue,lavender,No player hit some of his shots,none-half-half,none-half-half,B-C,yes,B-C,28,1,9528,NA
A2AXBJM4UHJ3YD,English,any advances,yellow,wheat,pink,No player hit all of his shots,half-half-all,half-all-half,A-B-C,yes,A-B-C,1,1,8490,NA
A2AXBJM4UHJ3YD,English,any advances,lightblue,lavender,royalblue,All of the players will advance,half-all-all,all-all-half,A-B-C,yes,A-B-C,0,7,14216,NA
A2AXBJM4UHJ3YD,English,any advances,pink,brown,lightorange,Every player hit some of his shots,half-all-all,all-half-all,A-B-C,yes,A-B-C,3,7,9139,NA
A2AXBJM4UHJ3YD,English,any advances,lightblue,brown,grey,Every player hit all of his shots,none-half-half,half-none-half,A-C,yes,A-C,2,1,10677,NA
A2AXBJM4UHJ3YD,English,any advances,lightblue,lightorange,purple,None of the players will advance,half-half-all,half-all-half,A-B-C,yes,A-B-C,5,1,9640,NA
A2AXBJM4UHJ3YD,English,any advances,lavender,royalblue,lightorange,Exactly one player hit all of his shots,none-none-half,half-none-none,A,yes,A,4,1,12597,NA
A2AXBJM4UHJ3YD,English,any advances,midnight,tan,royalblue,Player C will be disappointed,none-none-all,none-all-none,B,yes,B,7,7,7038,NA
A2AXBJM4UHJ3YD,English,any advances,purple,royalblue,midnight,Most of the players will advance,all-all-all,all-all-all,A-B-C,yes,A-B-C,6,7,8187,NA
A2AXBJM4UHJ3YD,English,any advances,tan,grey,lavender,Player B will advance,none-half-half,half-none-half,A-C,yes,A-C,9,1,14309,NA
A2AXBJM4UHJ3YD,English,any advances,midnight,darkorange,lightorange,One player will advance,half-half-all,all-half-half,A-B-C,yes,A-B-C,8,1,6781,NA
A2AXBJM4UHJ3YD,English,any advances,royalblue,midnight,brown,Three players will advance,none-half-half,half-half-none,A-B,yes,A-B,11,1,14478,NA
A2AXBJM4UHJ3YD,English,any advances,wheat,lightorange,royalblue,Player A made shots,all-all-all,all-all-all,A-B-C,yes,A-B-C,10,7,10145,NA
A2AXBJM4UHJ3YD,English,any advances,lightorange,pink,purple,Player C will be pleased,none-half-half,none-half-half,B-C,yes,B-C,13,7,11203,NA
A2AXBJM4UHJ3YD,English,any advances,grey,midnight,brown,All the players will advance,none-none-half,half-none-none,A,yes,A,12,1,9136,NA
A2AXBJM4UHJ3YD,English,any advances,yellow,tan,brown,Player A will be disappointed,none-none-none,none-none-none,none,yes,none,15,7,4575,NA
A2AXBJM4UHJ3YD,English,any advances,pink,wheat,lightorange,Two players will advance,none-half-all,all-half-none,A-B,yes,A-B,14,7,9684,NA
A2AXBJM4UHJ3YD,English,any advances,wheat,lightorange,royalblue,Player A will advance,half-half-all,half-half-all,A-B-C,yes,A-B-C,17,7,11980,NA
A2AXBJM4UHJ3YD,English,any advances,yellow,brown,pink,Player C made shots,none-half-all,all-half-none,A-B,yes,A-B,16,1,7471,NA
A2AXBJM4UHJ3YD,English,any advances,midnight,brown,wheat,Every player hit none of his shots,none-all-all,all-none-all,A-C,yes,A-C,19,1,9208,NA
A2AXBJM4UHJ3YD,English,any advances,seafoam,darkorange,tan,No player hit none of his shots,all-all-all,all-all-all,A-B-C,yes,A-B-C,18,7,7615,NA
A2AXBJM4UHJ3YD,English,any advances,purple,yellow,tan,Player A was the star player of the round,most-none-all,most-none-all,A-C,yes,A-C,-1,1,15372,yes
A2AXBJM4UHJ3YD,English,any advances,royalblue,wheat,pink,Player C messed up,all-all-none,all-all-none,A-B,no,A-B,-3,6,28809,yes
A2AXBJM4UHJ3YD,English,any advances,lavender,lightorange,yellow,Player B will advance to the next round,all-few-none,all-few-none,A-B,no,A-B,-2,7,20214,yes
A38S1M9I6HIBJG,English,all advances,brown,purple,royalblue,Exactly one player hit some of his shots,half-half-half,half-half-half,none,yes,none,24,1,5317,NA
A38S1M9I6HIBJG,English,all advances,pink,yellow,lightorange,Player B will be disappointed,all-all-all,all-all-all,A-B-C,yes,A-B-C,25,1,8117,NA
A38S1M9I6HIBJG,English,all advances,lightorange,royalblue,wheat,Player C will be disappointed,half-half-all,half-half-all,C,yes,C,26,1,5957,NA
A38S1M9I6HIBJG,English,all advances,pink,brown,lightorange,Three players will advance,none-half-all,all-none-half,A,yes,A,27,1,7160,NA
A38S1M9I6HIBJG,English,all advances,lightblue,lavender,wheat,Every player hit some of his shots,none-none-half,none-half-none,none,yes,none,20,2,6433,NA
A38S1M9I6HIBJG,English,all advances,midnight,royalblue,pink,Player B will be pleased,none-half-all,none-all-half,B,yes,B,21,6,8096,NA
A38S1M9I6HIBJG,English,all advances,lightorange,royalblue,wheat,Every player hit all of his shots,none-all-all,none-all-all,B-C,yes,B-C,22,2,8584,NA
A38S1M9I6HIBJG,English,all advances,lightorange,grey,tan,No player hit none of his shots,none-none-none,none-none-none,none,yes,none,23,1,4914,NA
A38S1M9I6HIBJG,English,all advances,midnight,lavender,pink,Two players will advance,none-none-all,all-none-none,A,yes,A,28,1,7381,NA
A38S1M9I6HIBJG,English,all advances,pink,tan,yellow,Player A will advance,all-all-all,all-all-all,A-B-C,yes,A-B-C,1,5,15957,NA
A38S1M9I6HIBJG,English,all advances,midnight,brown,lightorange,Exactly one player hit all of his shots,half-half-half,half-half-half,none,yes,none,0,1,13510,NA
A38S1M9I6HIBJG,English,all advances,brown,grey,yellow,No player hit all of his shots,none-none-all,all-none-none,A,yes,A,3,1,7563,NA
A38S1M9I6HIBJG,English,all advances,seafoam,wheat,yellow,Player A will be disappointed,none-none-half,half-none-none,none,yes,none,2,2,10896,NA
A38S1M9I6HIBJG,English,all advances,seafoam,purple,wheat,Player A will be pleased,half-all-all,half-all-all,B-C,yes,B-C,5,1,6707,NA
A38S1M9I6HIBJG,English,all advances,tan,grey,wheat,Most of the players will advance,none-half-all,all-none-half,A,yes,A,4,1,8181,NA
A38S1M9I6HIBJG,English,all advances,midnight,seafoam,pink,Player B made shots,half-half-half,half-half-half,none,yes,none,7,7,10487,NA
A38S1M9I6HIBJG,English,all advances,pink,wheat,tan,None of the players will advance,none-half-all,half-all-none,B,yes,B,6,1,6674,NA
A38S1M9I6HIBJG,English,all advances,lightorange,seafoam,royalblue,Player A made shots,half-half-all,half-all-half,B,yes,B,9,5,11902,NA
A38S1M9I6HIBJG,English,all advances,purple,lavender,tan,All of the players will advance,none-none-none,none-none-none,none,yes,none,8,1,6334,NA
A38S1M9I6HIBJG,English,all advances,pink,yellow,purple,All the players will advance,half-all-all,half-all-all,B-C,yes,B-C,11,1,9316,NA
A38S1M9I6HIBJG,English,all advances,wheat,brown,royalblue,Player B will advance,none-half-half,half-none-half,none,yes,none,10,1,5971,NA
A38S1M9I6HIBJG,English,all advances,royalblue,tan,grey,Exactly one player hit none of his shots,none-none-half,none-none-half,none,yes,none,13,1,6658,NA
A38S1M9I6HIBJG,English,all advances,midnight,lavender,brown,No player hit some of his shots,none-none-none,none-none-none,none,yes,none,12,5,10746,NA
A38S1M9I6HIBJG,English,all advances,lavender,royalblue,grey,At least one player will advance,none-all-all,none-all-all,B-C,yes,B-C,15,6,10049,NA
A38S1M9I6HIBJG,English,all advances,pink,yellow,lightblue,Every player hit none of his shots,half-all-all,all-half-all,A-C,yes,A-C,14,1,9219,NA
A38S1M9I6HIBJG,English,all advances,royalblue,lightorange,brown,One player will advance,half-half-all,half-all-half,B,yes,B,17,7,6117,NA
A38S1M9I6HIBJG,English,all advances,seafoam,lavender,lightorange,Player C will be pleased,none-half-all,none-half-all,C,yes,C,16,7,5795,NA
A38S1M9I6HIBJG,English,all advances,darkorange,lightblue,lightorange,Player C will advance,none-half-all,none-half-all,C,yes,C,19,7,4924,NA
A38S1M9I6HIBJG,English,all advances,brown,lightorange,grey,Player C made shots,none-none-none,none-none-none,none,yes,none,18,1,3798,NA
A38S1M9I6HIBJG,English,all advances,wheat,purple,lightorange,Player A was the star player of the round,most-none-all,most-none-all,C,yes,C,-1,1,13421,yes
A38S1M9I6HIBJG,English,all advances,lavender,yellow,royalblue,Player C messed up,all-all-none,all-all-none,A-B,yes,A-B,-3,6,45668,no
A38S1M9I6HIBJG,English,all advances,darkorange,midnight,lightblue,Player B will advance to the next round,all-few-none,all-few-none,A,yes,A,-2,1,12866,yes
AAR6MYZQ0EYMZ,English,all advances,lightblue,royalblue,wheat,Player C will be disappointed,half-all-all,all-half-all,A-C,yes,A-C,24,2,11192,NA
AAR6MYZQ0EYMZ,English,all advances,yellow,seafoam,wheat,No player hit some of his shots,half-half-all,half-half-all,C,yes,C,25,1,5217,NA
AAR6MYZQ0EYMZ,English,all advances,midnight,seafoam,lightblue,Player C made shots,half-all-all,half-all-all,B-C,yes,B-C,26,5,9505,NA
AAR6MYZQ0EYMZ,English,all advances,purple,darkorange,brown,One player will advance,none-none-none,none-none-none,none,yes,none,27,1,2822,NA
AAR6MYZQ0EYMZ,English,all advances,pink,lightorange,wheat,Exactly one player hit some of his shots,none-none-half,none-none-half,none,yes,none,20,6,8190,NA
AAR6MYZQ0EYMZ,English,all advances,darkorange,wheat,lightblue,All the players will advance,none-half-half,half-none-half,none,yes,none,21,1,3509,NA
AAR6MYZQ0EYMZ,English,all advances,brown,yellow,lavender,Three players will advance,none-half-all,all-half-none,A,yes,A,22,1,4296,NA
AAR6MYZQ0EYMZ,English,all advances,seafoam,wheat,yellow,Exactly one player hit all of his shots,all-all-all,all-all-all,A-B-C,yes,A-B-C,23,1,6973,NA
AAR6MYZQ0EYMZ,English,all advances,yellow,pink,brown,Player B made shots,none-none-half,none-half-none,none,yes,none,28,6,4454,NA
AAR6MYZQ0EYMZ,English,all advances,tan,wheat,grey,Player B will advance,none-half-half,half-none-half,none,yes,none,1,1,5465,NA
AAR6MYZQ0EYMZ,English,all advances,midnight,yellow,lavender,No player hit none of his shots,none-half-half,none-half-half,none,yes,none,0,6,11903,NA
AAR6MYZQ0EYMZ,English,all advances,pink,lightorange,brown,Every player hit all of his shots,none-none-all,all-none-none,A,yes,A,3,1,4724,NA
AAR6MYZQ0EYMZ,English,all advances,wheat,pink,grey,All of the players will advance,all-all-all,all-all-all,A-B-C,no,A-B-C,2,7,11271,NA
AAR6MYZQ0EYMZ,English,all advances,seafoam,purple,wheat,No player hit all of his shots,half-half-all,all-half-half,A,yes,A,5,1,5511,NA
AAR6MYZQ0EYMZ,English,all advances,brown,wheat,tan,Player A made shots,half-half-all,half-all-half,B,yes,B,4,5,7041,NA
AAR6MYZQ0EYMZ,English,all advances,purple,grey,seafoam,Every player hit none of his shots,none-half-all,none-half-all,C,yes,C,7,1,6713,NA
AAR6MYZQ0EYMZ,English,all advances,tan,lightorange,darkorange,Player C will advance,none-all-all,all-all-none,A-B,yes,A-B,6,1,5375,NA
AAR6MYZQ0EYMZ,English,all advances,yellow,grey,pink,Player B will be pleased,none-half-all,half-none-all,C,yes,C,9,1,5421,NA
AAR6MYZQ0EYMZ,English,all advances,grey,lightorange,purple,Player A will be pleased,none-none-none,none-none-none,none,yes,none,8,2,5657,NA
AAR6MYZQ0EYMZ,English,all advances,yellow,lightblue,darkorange,Player B will be disappointed,none-none-none,none-none-none,none,yes,none,11,6,8987,NA
AAR6MYZQ0EYMZ,English,all advances,brown,lightblue,purple,None of the players will advance,none-none-all,all-none-none,A,yes,A,10,1,4037,NA
AAR6MYZQ0EYMZ,English,all advances,purple,darkorange,lightorange,Every player hit some of his shots,none-half-all,all-half-none,A,yes,A,13,1,7277,NA
AAR6MYZQ0EYMZ,English,all advances,royalblue,lightblue,tan,Most of the players will advance,half-all-all,all-half-all,A-C,yes,A-C,12,7,8863,NA
AAR6MYZQ0EYMZ,English,all advances,midnight,darkorange,yellow,Two players will advance,none-none-all,none-none-all,C,yes,C,15,1,4565,NA
AAR6MYZQ0EYMZ,English,all advances,pink,seafoam,tan,Player C will be pleased,none-all-all,all-none-all,A-C,yes,A-C,14,6,8166,NA
AAR6MYZQ0EYMZ,English,all advances,midnight,tan,wheat,Player A will be disappointed,none-none-none,none-none-none,none,yes,none,17,6,5139,NA
AAR6MYZQ0EYMZ,English,all advances,lightblue,darkorange,pink,Exactly one player hit none of his shots,all-all-all,all-all-all,A-B-C,yes,A-B-C,16,1,6929,NA
AAR6MYZQ0EYMZ,English,all advances,royalblue,lightorange,yellow,At least one player will advance,none-half-half,half-half-none,none,yes,none,19,1,4903,NA
AAR6MYZQ0EYMZ,English,all advances,grey,royalblue,purple,Player A will advance,none-none-half,none-half-none,none,yes,none,18,1,3474,NA
AAR6MYZQ0EYMZ,English,all advances,wheat,darkorange,pink,Player A was the star player of the round,most-none-all,most-none-all,C,yes,C,-1,1,9488,yes
AAR6MYZQ0EYMZ,English,all advances,yellow,grey,lightorange,Player C messed up,all-all-none,all-all-none,A-B,yes,A-B,-3,6,29946,no
