workerid,language,tournamentCondition,player1color,player2color,player3color,sentence,condition,conditionOrder,correctAnswer,advancesCorrectFirstTime,advances,trialnum,response,rt,trainingCorrect
A28Q19NTTP0UIQ,English,any advances,seafoam,yellow,lightblue,Player C made shots,half-half-all,all-half-half,A-B-C,yes,A-B-C,24,7,12312,NA
A28Q19NTTP0UIQ,English,any advances,brown,grey,tan,None of the players will advance,none-half-half,half-none-half,A-C,yes,A-C,25,1,8835,NA
A28Q19NTTP0UIQ,English,any advances,royalblue,purple,tan,Two players will advance,none-half-half,half-half-none,A-B,yes,A-B,26,7,8019,NA
A28Q19NTTP0UIQ,English,any advances,lightorange,wheat,lavender,Most of the players will advance,all-all-all,all-all-all,A-B-C,yes,A-B-C,27,7,8005,NA
A28Q19NTTP0UIQ,English,any advances,yellow,purple,wheat,Player A made shots,all-all-all,all-all-all,A-B-C,yes,A-B-C,20,7,5911,NA
A28Q19NTTP0UIQ,English,any advances,darkorange,seafoam,royalblue,No player hit none of his shots,all-all-all,all-all-all,A-B-C,yes,A-B-C,21,7,6182,NA
A28Q19NTTP0UIQ,English,any advances,grey,seafoam,lightorange,Exactly one player hit some of his shots,none-half-all,half-all-none,A-B,yes,A-B,22,7,5016,NA
A28Q19NTTP0UIQ,English,any advances,midnight,darkorange,wheat,No player hit some of his shots,half-all-all,all-all-half,A-B-C,yes,A-B-C,23,1,7891,NA
A28Q19NTTP0UIQ,English,any advances,grey,lightorange,lightblue,Player C will be pleased,none-half-half,none-half-half,B-C,yes,B-C,28,5,9709,NA
A28Q19NTTP0UIQ,English,any advances,lightblue,brown,midnight,Player A will advance,none-none-none,none-none-none,none,yes,none,1,1,5634,NA
A28Q19NTTP0UIQ,English,any advances,purple,wheat,lavender,Player B will be disappointed,none-none-all,all-none-none,A,yes,A,0,7,7344,NA
A28Q19NTTP0UIQ,English,any advances,pink,grey,lavender,At least one player will advance,none-none-none,none-none-none,none,yes,none,3,1,4296,NA
A28Q19NTTP0UIQ,English,any advances,royalblue,purple,grey,Every player hit none of his shots,none-none-none,none-none-none,none,yes,none,2,7,4627,NA
A28Q19NTTP0UIQ,English,any advances,tan,grey,yellow,No player hit all of his shots,none-none-half,none-half-none,B,yes,B,5,7,9894,NA
A28Q19NTTP0UIQ,English,any advances,lightorange,royalblue,seafoam,Player A will be disappointed,none-none-none,none-none-none,none,yes,none,4,7,3848,NA
A28Q19NTTP0UIQ,English,any advances,lavender,lightorange,brown,Player C will be disappointed,all-all-all,all-all-all,A-B-C,yes,A-B-C,7,1,6058,NA
A28Q19NTTP0UIQ,English,any advances,lightblue,yellow,wheat,Player B made shots,none-half-half,half-half-none,A-B,yes,A-B,6,7,5894,NA
A28Q19NTTP0UIQ,English,any advances,lightorange,grey,lavender,Every player hit all of his shots,all-all-all,all-all-all,A-B-C,yes,A-B-C,9,7,7785,NA
A28Q19NTTP0UIQ,English,any advances,grey,lavender,tan,All the players will advance,none-all-all,none-all-all,B-C,yes,B-C,8,1,5315,NA
A28Q19NTTP0UIQ,English,any advances,tan,darkorange,purple,Every player hit some of his shots,all-all-all,all-all-all,A-B-C,yes,A-B-C,11,7,5714,NA
A28Q19NTTP0UIQ,English,any advances,brown,royalblue,pink,Exactly one player hit all of his shots,all-all-all,all-all-all,A-B-C,yes,A-B-C,10,1,7134,NA
A28Q19NTTP0UIQ,English,any advances,wheat,darkorange,purple,Player A will be pleased,none-half-half,half-half-none,A-B,no,A-B,13,5,11163,NA
A28Q19NTTP0UIQ,English,any advances,lavender,lightblue,brown,Player B will advance,all-all-all,all-all-all,A-B-C,yes,A-B-C,12,7,6029,NA
A28Q19NTTP0UIQ,English,any advances,midnight,yellow,lightblue,Player C will advance,none-none-all,none-none-all,C,yes,C,15,7,4155,NA
A28Q19NTTP0UIQ,English,any advances,seafoam,brown,midnight,All of the players will advance,none-all-all,all-none-all,A-C,yes,A-C,14,1,5038,NA
A28Q19NTTP0UIQ,English,any advances,lightblue,wheat,tan,Three players will advance,none-half-half,half-none-half,A-C,yes,A-C,17,1,7924,NA
A28Q19NTTP0UIQ,English,any advances,royalblue,tan,yellow,Exactly one player hit none of his shots,none-none-all,none-all-none,B,yes,B,16,1,6102,NA
A28Q19NTTP0UIQ,English,any advances,midnight,tan,lavender,One player will advance,none-half-half,half-none-half,A-C,yes,A-C,19,1,4916,NA
A28Q19NTTP0UIQ,English,any advances,midnight,wheat,darkorange,Player B will be pleased,none-none-all,none-all-none,B,yes,B,18,7,8839,NA
A28Q19NTTP0UIQ,English,any advances,royalblue,seafoam,tan,Player A was the star player of the round,most-none-all,most-none-all,A-C,yes,A-C,-1,1,10183,yes
A28Q19NTTP0UIQ,English,any advances,tan,purple,lavender,Player C messed up,all-all-none,all-all-none,A-B,yes,A-B,-3,7,29342,no
A28Q19NTTP0UIQ,English,any advances,darkorange,lavender,tan,Player B will advance to the next round,all-few-none,all-few-none,A-B,yes,A-B,-2,7,7895,yes
AVQGY7FCU80XP,english,any advances,lightorange,wheat,midnight,One player will advance,none-none-none,none-none-none,none,yes,none,24,1,4201,NA
AVQGY7FCU80XP,english,any advances,lightorange,yellow,purple,Exactly one player hit all of his shots,none-none-half,none-half-none,B,yes,B,25,1,5231,NA
AVQGY7FCU80XP,english,any advances,seafoam,yellow,purple,Two players will advance,none-none-none,none-none-none,none,yes,none,26,1,5634,NA
AVQGY7FCU80XP,english,any advances,lightorange,purple,royalblue,Player A made shots,none-all-all,all-none-all,A-C,yes,A-C,27,7,7874,NA
AVQGY7FCU80XP,english,any advances,grey,seafoam,pink,Player A will be disappointed,none-none-none,none-none-none,none,yes,none,20,7,6951,NA
AVQGY7FCU80XP,english,any advances,lavender,royalblue,yellow,Player A will advance,none-none-half,half-none-none,A,no,A,21,7,17135,NA
AVQGY7FCU80XP,english,any advances,seafoam,lightorange,darkorange,Player B made shots,half-half-all,all-half-half,A-B-C,yes,A-B-C,22,7,8049,NA
AVQGY7FCU80XP,english,any advances,seafoam,midnight,brown,All the players will advance,half-all-all,all-half-all,A-B-C,yes,A-B-C,23,7,7602,NA
AVQGY7FCU80XP,english,any advances,seafoam,wheat,lightorange,Player C will be disappointed,none-none-half,none-half-none,B,yes,B,28,7,6613,NA
AVQGY7FCU80XP,english,any advances,midnight,lavender,pink,No player hit some of his shots,none-none-none,none-none-none,none,yes,none,1,7,8481,NA
AVQGY7FCU80XP,english,any advances,royalblue,seafoam,pink,Player A will be pleased,none-none-none,none-none-none,none,yes,none,0,1,10104,NA
AVQGY7FCU80XP,english,any advances,yellow,grey,purple,Most of the players will advance,half-all-all,all-half-all,A-B-C,yes,A-B-C,3,4,23300,NA
AVQGY7FCU80XP,english,any advances,pink,lightblue,seafoam,Player B will advance,none-none-half,half-none-none,A,yes,A,2,1,6535,NA
AVQGY7FCU80XP,english,any advances,darkorange,pink,royalblue,Player C will advance,none-none-half,none-half-none,B,yes,B,5,1,5200,NA
AVQGY7FCU80XP,english,any advances,lavender,darkorange,pink,None of the players will advance,none-half-all,none-half-all,B-C,yes,B-C,4,1,7752,NA
AVQGY7FCU80XP,english,any advances,royalblue,seafoam,tan,Every player hit some of his shots,none-none-all,all-none-none,A,yes,A,7,1,5978,NA
AVQGY7FCU80XP,english,any advances,lightblue,grey,brown,Every player hit all of his shots,none-all-all,none-all-all,B-C,yes,B-C,6,1,8576,NA
AVQGY7FCU80XP,english,any advances,lavender,royalblue,brown,Player B will be pleased,all-all-all,all-all-all,A-B-C,yes,A-B-C,9,7,9195,NA
AVQGY7FCU80XP,english,any advances,lightblue,lavender,yellow,Exactly one player hit some of his shots,half-half-all,all-half-half,A-B-C,yes,A-B-C,8,1,9654,NA
AVQGY7FCU80XP,english,any advances,yellow,purple,lavender,Three players will advance,all-all-all,all-all-all,A-B-C,yes,A-B-C,11,7,8534,NA
AVQGY7FCU80XP,english,any advances,purple,yellow,tan,At least one player will advance,none-none-none,none-none-none,none,yes,none,10,1,4583,NA
AVQGY7FCU80XP,english,any advances,wheat,midnight,grey,Player B will be disappointed,none-all-all,none-all-all,B-C,yes,B-C,13,1,6214,NA
AVQGY7FCU80XP,english,any advances,wheat,yellow,midnight,Player C made shots,none-half-all,none-all-half,B-C,yes,B-C,12,5,12221,NA
AVQGY7FCU80XP,english,any advances,grey,lightorange,yellow,No player hit none of his shots,none-none-none,none-none-none,none,yes,none,15,1,10799,NA
AVQGY7FCU80XP,english,any advances,darkorange,pink,purple,All of the players will advance,none-half-half,half-none-half,A-C,yes,A-C,14,1,6052,NA
AVQGY7FCU80XP,english,any advances,brown,lightorange,midnight,No player hit all of his shots,none-all-all,all-none-all,A-C,yes,A-C,17,1,9380,NA
AVQGY7FCU80XP,english,any advances,royalblue,tan,purple,Exactly one player hit none of his shots,half-half-half,half-half-half,A-B-C,yes,A-B-C,16,1,9406,NA
AVQGY7FCU80XP,english,any advances,seafoam,yellow,darkorange,Every player hit none of his shots,none-half-half,half-half-none,A-B,yes,A-B,19,1,11686,NA
AVQGY7FCU80XP,english,any advances,purple,lightblue,yellow,Player C will be pleased,none-none-none,none-none-none,none,yes,none,18,1,4767,NA
AVQGY7FCU80XP,english,any advances,midnight,lightblue,seafoam,Player A was the star player of the round,most-none-all,most-none-all,A-C,yes,A-C,-1,1,14866,yes
AVQGY7FCU80XP,english,any advances,seafoam,royalblue,tan,Player C messed up,all-all-none,all-all-none,A-B,yes,A-B,-3,6,18767,yes
AVQGY7FCU80XP,english,any advances,lightorange,lightblue,seafoam,Player B will advance to the next round,all-few-none,all-few-none,A-B,yes,A-B,-2,7,13197,yes
A1N3ARFGIX5CL3,English,all advances,seafoam,pink,lightblue,Exactly one player hit none of his shots,none-none-half,none-half-none,none,yes,none,24,1,7976,NA
A1N3ARFGIX5CL3,English,all advances,pink,darkorange,brown,Exactly one player hit some of his shots,none-none-all,all-none-none,A,yes,A,25,7,5530,NA
A1N3ARFGIX5CL3,English,all advances,grey,darkorange,wheat,Player A made shots,none-none-all,none-none-all,C,yes,C,26,1,6603,NA
A1N3ARFGIX5CL3,English,all advances,tan,pink,lightblue,Player B will be pleased,all-all-all,all-all-all,A-B-C,yes,A-B-C,27,7,6215,NA
A1N3ARFGIX5CL3,English,all advances,midnight,seafoam,tan,At least one player will advance,all-all-all,all-all-all,A-B-C,yes,A-B-C,20,7,7660,NA
A1N3ARFGIX5CL3,English,all advances,tan,lightblue,purple,Player C will be disappointed,none-half-all,none-all-half,B,yes,B,21,7,3832,NA
A1N3ARFGIX5CL3,English,all advances,tan,wheat,brown,No player hit none of his shots,half-all-all,half-all-all,B-C,yes,B-C,22,7,16525,NA
A1N3ARFGIX5CL3,English,all advances,seafoam,midnight,royalblue,No player hit all of his shots,none-half-half,half-none-half,none,yes,none,23,7,3034,NA
A1N3ARFGIX5CL3,English,all advances,lightorange,wheat,lavender,All of the players will advance,none-all-all,all-all-none,A-B,yes,A-B,28,1,5159,NA
A1N3ARFGIX5CL3,English,all advances,wheat,grey,lightblue,All the players will advance,half-all-all,all-half-all,A-C,yes,A-C,1,1,10555,NA
A1N3ARFGIX5CL3,English,all advances,purple,royalblue,lightblue,One player will advance,none-half-half,none-half-half,none,yes,none,0,1,7693,NA
A1N3ARFGIX5CL3,English,all advances,royalblue,lavender,tan,Every player hit none of his shots,none-none-all,none-all-none,B,yes,B,3,1,9176,NA
A1N3ARFGIX5CL3,English,all advances,lightblue,lavender,yellow,Player A will be pleased,half-half-all,half-half-all,C,yes,C,2,1,9363,NA
A1N3ARFGIX5CL3,English,all advances,purple,yellow,darkorange,Player B made shots,all-all-all,all-all-all,A-B-C,yes,A-B-C,5,7,7575,NA
A1N3ARFGIX5CL3,English,all advances,brown,purple,grey,Player A will be disappointed,none-half-half,half-none-half,none,yes,none,4,7,6512,NA
A1N3ARFGIX5CL3,English,all advances,royalblue,lightorange,grey,Player A will advance,none-none-all,all-none-none,A,yes,A,7,7,4218,NA
A1N3ARFGIX5CL3,English,all advances,grey,midnight,darkorange,None of the players will advance,half-half-half,half-half-half,none,yes,none,6,7,4640,NA
A1N3ARFGIX5CL3,English,all advances,lightorange,purple,midnight,Player C will be pleased,none-none-half,half-none-none,none,yes,none,9,1,5817,NA
A1N3ARFGIX5CL3,English,all advances,royalblue,grey,lavender,No player hit some of his shots,all-all-all,all-all-all,A-B-C,yes,A-B-C,8,1,10397,NA
A1N3ARFGIX5CL3,English,all advances,yellow,purple,royalblue,Player C will advance,none-none-half,none-half-none,none,yes,none,11,1,3990,NA
A1N3ARFGIX5CL3,English,all advances,wheat,seafoam,brown,Player B will advance,none-none-half,half-none-none,none,yes,none,10,1,5380,NA
A1N3ARFGIX5CL3,English,all advances,midnight,brown,grey,Player B will be disappointed,half-all-all,all-half-all,A-C,yes,A-C,13,7,6509,NA
A1N3ARFGIX5CL3,English,all advances,seafoam,brown,wheat,Every player hit some of his shots,none-half-all,all-half-none,A,yes,A,12,1,6030,NA
A1N3ARFGIX5CL3,English,all advances,seafoam,tan,grey,Every player hit all of his shots,none-none-half,none-none-half,none,yes,none,15,1,4435,NA
A1N3ARFGIX5CL3,English,all advances,royalblue,lavender,lightorange,Most of the players will advance,none-none-half,none-half-none,none,yes,none,14,1,3197,NA
A1N3ARFGIX5CL3,English,all advances,brown,lavender,royalblue,Exactly one player hit all of his shots,none-half-all,half-all-none,B,yes,B,17,7,5355,NA
A1N3ARFGIX5CL3,English,all advances,brown,pink,tan,Three players will advance,none-none-half,none-none-half,none,yes,none,16,1,3073,NA
A1N3ARFGIX5CL3,English,all advances,seafoam,yellow,lightblue,Player C made shots,none-half-all,none-all-half,B,yes,B,19,7,6485,NA
A1N3ARFGIX5CL3,English,all advances,wheat,seafoam,lightblue,Two players will advance,all-all-all,all-all-all,A-B-C,yes,A-B-C,18,1,6619,NA
A1N3ARFGIX5CL3,English,all advances,midnight,lavender,grey,Player A was the star player of the round,most-none-all,most-none-all,C,yes,C,-1,1,10529,yes
A1N3ARFGIX5CL3,English,all advances,tan,darkorange,pink,Player C messed up,all-all-none,all-all-none,A-B,yes,A-B,-3,7,16589,yes
A1N3ARFGIX5CL3,English,all advances,royalblue,midnight,lavender,Player B will advance to the next round,all-few-none,all-few-none,A,yes,A,-2,1,7858,yes
A2A1Y2EKAI03T5,english,any advances,darkorange,lightblue,purple,All of the players will advance,none-half-half,half-half-none,A-B,yes,A-B,24,3,5292,NA
A2A1Y2EKAI03T5,english,any advances,seafoam,lavender,purple,Player A will advance,half-all-all,half-all-all,A-B-C,yes,A-B-C,25,4,6218,NA
A2A1Y2EKAI03T5,english,any advances,tan,darkorange,royalblue,No player hit all of his shots,none-none-all,none-none-all,C,yes,C,26,4,5733,NA
A2A1Y2EKAI03T5,english,any advances,brown,darkorange,grey,Every player hit some of his shots,half-half-all,half-all-half,A-B-C,yes,A-B-C,27,4,7640,NA
A2A1Y2EKAI03T5,english,any advances,seafoam,pink,midnight,Player C made shots,half-half-all,half-half-all,A-B-C,yes,A-B-C,20,5,10099,NA
A2A1Y2EKAI03T5,english,any advances,purple,midnight,darkorange,Player A will be pleased,none-none-none,none-none-none,none,yes,none,21,1,3605,NA
A2A1Y2EKAI03T5,english,any advances,midnight,royalblue,pink,Every player hit all of his shots,half-all-all,half-all-all,A-B-C,yes,A-B-C,22,1,8522,NA
A2A1Y2EKAI03T5,english,any advances,brown,lavender,yellow,No player hit none of his shots,none-all-all,all-none-all,A-C,yes,A-C,23,1,9820,NA
A2A1Y2EKAI03T5,english,any advances,lightblue,purple,midnight,Three players will advance,half-half-half,half-half-half,A-B-C,yes,A-B-C,28,7,7653,NA
A2A1Y2EKAI03T5,english,any advances,pink,yellow,purple,Exactly one player hit some of his shots,half-half-half,half-half-half,A-B-C,yes,A-B-C,1,3,11158,NA
A2A1Y2EKAI03T5,english,any advances,lightorange,royalblue,darkorange,None of the players will advance,all-all-all,all-all-all,A-B-C,yes,A-B-C,0,2,13488,NA
A2A1Y2EKAI03T5,english,any advances,wheat,lavender,lightblue,Player A made shots,none-half-all,all-none-half,A-C,yes,A-C,3,7,11342,NA
A2A1Y2EKAI03T5,english,any advances,lightorange,wheat,darkorange,No player hit some of his shots,none-half-all,half-none-all,A-C,yes,A-C,2,1,10814,NA
A2A1Y2EKAI03T5,english,any advances,grey,midnight,purple,Two players will advance,none-none-half,none-none-half,C,yes,C,5,1,8167,NA
A2A1Y2EKAI03T5,english,any advances,yellow,grey,lightorange,All the players will advance,none-all-all,none-all-all,B-C,yes,B-C,4,1,7902,NA
A2A1Y2EKAI03T5,english,any advances,seafoam,tan,brown,Player B will advance,none-half-all,none-half-all,B-C,yes,B-C,7,1,6512,NA
A2A1Y2EKAI03T5,english,any advances,grey,lavender,royalblue,Player B will be pleased,none-none-half,half-none-none,A,yes,A,6,1,6052,NA
A2A1Y2EKAI03T5,english,any advances,royalblue,seafoam,pink,Player A will be disappointed,none-none-half,none-none-half,C,yes,C,9,1,11429,NA
A2A1Y2EKAI03T5,english,any advances,tan,lightorange,midnight,Player B will be disappointed,half-half-half,half-half-half,A-B-C,yes,A-B-C,8,1,10419,NA
A2A1Y2EKAI03T5,english,any advances,lavender,brown,royalblue,Exactly one player hit none of his shots,none-none-half,half-none-none,A,yes,A,11,4,4758,NA
A2A1Y2EKAI03T5,english,any advances,lavender,lightblue,yellow,Exactly one player hit all of his shots,none-half-half,half-half-none,A-B,yes,A-B,10,3,6447,NA
A2A1Y2EKAI03T5,english,any advances,brown,royalblue,lightblue,At least one player will advance,none-half-all,none-all-half,B-C,no,B-C,13,6,14494,NA
A2A1Y2EKAI03T5,english,any advances,lightorange,tan,seafoam,Most of the players will advance,none-all-all,all-all-none,A-B,yes,A-B,12,6,6260,NA
A2A1Y2EKAI03T5,english,any advances,brown,royalblue,lavender,Every player hit none of his shots,half-all-all,half-all-all,A-B-C,yes,A-B-C,15,1,7558,NA
A2A1Y2EKAI03T5,english,any advances,lavender,lightblue,grey,Player C will be disappointed,half-half-half,half-half-half,A-B-C,yes,A-B-C,14,2,8024,NA
A2A1Y2EKAI03T5,english,any advances,wheat,royalblue,pink,Player B made shots,half-half-half,half-half-half,A-B-C,yes,A-B-C,17,2,9999,NA
A2A1Y2EKAI03T5,english,any advances,seafoam,midnight,brown,One player will advance,half-half-half,half-half-half,A-B-C,yes,A-B-C,16,1,10421,NA
A2A1Y2EKAI03T5,english,any advances,lightorange,purple,midnight,Player C will advance,none-none-half,none-none-half,C,yes,C,19,5,6931,NA
A2A1Y2EKAI03T5,english,any advances,pink,purple,yellow,Player C will be pleased,all-all-all,all-all-all,A-B-C,yes,A-B-C,18,5,7016,NA
A2A1Y2EKAI03T5,english,any advances,midnight,pink,lightblue,Player A was the star player of the round,most-none-all,most-none-all,A-C,yes,A-C,-1,1,12577,yes
A2A1Y2EKAI03T5,english,any advances,wheat,royalblue,tan,Player C messed up,all-all-none,all-all-none,A-B,yes,A-B,-3,7,14560,yes
A2A1Y2EKAI03T5,english,any advances,yellow,royalblue,midnight,Player B will advance to the next round,all-few-none,all-few-none,A-B,no,A-B,-2,6,21111,yes
A21Z8Q88G7MVX8,English,any advances,seafoam,pink,grey,Player A made shots,half-all-all,all-all-half,A-B-C,yes,A-B-C,24,4,5839,NA
A21Z8Q88G7MVX8,English,any advances,brown,grey,yellow,No player hit none of his shots,none-half-all,half-all-none,A-B,yes,A-B,25,1,7189,NA
A21Z8Q88G7MVX8,English,any advances,pink,darkorange,midnight,None of the players will advance,all-all-all,all-all-all,A-B-C,yes,A-B-C,26,1,5022,NA
A21Z8Q88G7MVX8,English,any advances,pink,royalblue,lightblue,Exactly one player hit some of his shots,half-half-all,half-all-half,A-B-C,yes,A-B-C,27,1,10847,NA
A21Z8Q88G7MVX8,English,any advances,purple,tan,seafoam,Every player hit none of his shots,all-all-all,all-all-all,A-B-C,yes,A-B-C,20,1,5988,NA
A21Z8Q88G7MVX8,English,any advances,purple,grey,lightblue,Every player hit all of his shots,none-all-all,all-all-none,A-B,yes,A-B,21,1,5661,NA
A21Z8Q88G7MVX8,English,any advances,wheat,pink,lightorange,Player B will advance,half-half-half,half-half-half,A-B-C,yes,A-B-C,22,4,6686,NA
A21Z8Q88G7MVX8,English,any advances,darkorange,purple,yellow,At least one player will advance,half-half-all,half-half-all,A-B-C,yes,A-B-C,23,4,5565,NA
A21Z8Q88G7MVX8,English,any advances,purple,royalblue,darkorange,All of the players will advance,none-half-all,all-none-half,A-C,yes,A-C,28,1,4260,NA
A21Z8Q88G7MVX8,English,any advances,seafoam,pink,darkorange,Player B made shots,none-all-all,all-none-all,A-C,yes,A-C,1,1,7599,NA
A21Z8Q88G7MVX8,English,any advances,lightblue,wheat,seafoam,No player hit all of his shots,none-none-all,none-none-all,C,yes,C,0,1,12176,NA
A21Z8Q88G7MVX8,English,any advances,brown,lavender,lightblue,Exactly one player hit none of his shots,none-none-half,none-none-half,C,yes,C,3,1,5949,NA
A21Z8Q88G7MVX8,English,any advances,lavender,wheat,tan,Most of the players will advance,none-none-none,none-none-none,none,yes,none,2,1,9004,NA
A21Z8Q88G7MVX8,English,any advances,purple,brown,yellow,Exactly one player hit all of his shots,none-none-none,none-none-none,none,yes,none,5,1,4325,NA
A21Z8Q88G7MVX8,English,any advances,tan,pink,yellow,No player hit some of his shots,none-none-none,none-none-none,none,yes,none,4,7,5334,NA
A21Z8Q88G7MVX8,English,any advances,yellow,lavender,darkorange,Player A will be disappointed,half-half-half,half-half-half,A-B-C,yes,A-B-C,7,1,17077,NA
A21Z8Q88G7MVX8,English,any advances,purple,lightorange,grey,All the players will advance,none-none-half,none-none-half,C,yes,C,6,1,6964,NA
A21Z8Q88G7MVX8,English,any advances,tan,pink,lightorange,Player A will advance,all-all-all,all-all-all,A-B-C,yes,A-B-C,9,3,8524,NA
A21Z8Q88G7MVX8,English,any advances,royalblue,seafoam,yellow,Two players will advance,half-half-half,half-half-half,A-B-C,yes,A-B-C,8,1,8591,NA
A21Z8Q88G7MVX8,English,any advances,grey,darkorange,lavender,Player C will be disappointed,half-half-half,half-half-half,A-B-C,yes,A-B-C,11,1,7661,NA
A21Z8Q88G7MVX8,English,any advances,brown,lavender,royalblue,Player B will be pleased,half-all-all,half-all-all,A-B-C,yes,A-B-C,10,4,8643,NA
A21Z8Q88G7MVX8,English,any advances,pink,lightblue,yellow,Player C will be pleased,none-none-half,none-half-none,B,yes,B,13,1,4787,NA
A21Z8Q88G7MVX8,English,any advances,yellow,lightorange,seafoam,Every player hit some of his shots,half-half-all,all-half-half,A-B-C,yes,A-B-C,12,7,6571,NA
A21Z8Q88G7MVX8,English,any advances,tan,lightblue,purple,One player will advance,none-none-all,none-all-none,B,yes,B,15,7,5245,NA
A21Z8Q88G7MVX8,English,any advances,yellow,grey,wheat,Three players will advance,none-half-half,half-half-none,A-B,yes,A-B,14,1,5821,NA
A21Z8Q88G7MVX8,English,any advances,royalblue,grey,pink,Player B will be disappointed,half-half-all,half-half-all,A-B-C,yes,A-B-C,17,1,7301,NA
A21Z8Q88G7MVX8,English,any advances,lavender,yellow,wheat,Player C made shots,none-none-half,none-half-none,B,yes,B,16,1,5999,NA
A21Z8Q88G7MVX8,English,any advances,tan,yellow,lightblue,Player C will advance,half-half-half,half-half-half,A-B-C,yes,A-B-C,19,4,5670,NA
A21Z8Q88G7MVX8,English,any advances,lightblue,wheat,tan,Player A will be pleased,half-half-all,half-all-half,A-B-C,yes,A-B-C,18,4,5693,NA
A21Z8Q88G7MVX8,English,any advances,royalblue,lavender,yellow,Player A was the star player of the round,most-none-all,most-none-all,A-C,yes,A-C,-1,1,14015,yes
A21Z8Q88G7MVX8,English,any advances,lightorange,brown,royalblue,Player C messed up,all-all-none,all-all-none,A-B,yes,A-B,-3,7,19143,yes
A21Z8Q88G7MVX8,English,any advances,lightblue,seafoam,grey,Player B will advance to the next round,all-few-none,all-few-none,A-B,yes,A-B,-2,6,52370,no
ACVEFRSUAPSEQ,English,any advances,grey,tan,wheat,No player hit none of his shots,half-all-all,all-half-all,A-B-C,yes,A-B-C,24,4,12022,NA
ACVEFRSUAPSEQ,English,any advances,grey,seafoam,yellow,Exactly one player hit none of his shots,none-none-none,none-none-none,none,yes,none,25,1,4830,NA
ACVEFRSUAPSEQ,English,any advances,wheat,royalblue,darkorange,Player C will advance,none-none-half,none-none-half,C,yes,C,26,7,4071,NA
ACVEFRSUAPSEQ,English,any advances,purple,lightorange,midnight,No player hit some of his shots,none-all-all,all-none-all,A-C,yes,A-C,27,1,7807,NA
ACVEFRSUAPSEQ,English,any advances,royalblue,pink,grey,Exactly one player hit some of his shots,none-none-half,none-half-none,B,yes,B,20,5,7279,NA
ACVEFRSUAPSEQ,English,any advances,wheat,purple,royalblue,None of the players will advance,none-none-half,half-none-none,A,yes,A,21,1,4319,NA
ACVEFRSUAPSEQ,English,any advances,purple,lightorange,grey,Three players will advance,half-half-half,half-half-half,A-B-C,yes,A-B-C,22,7,5551,NA
ACVEFRSUAPSEQ,English,any advances,pink,darkorange,midnight,Two players will advance,half-half-half,half-half-half,A-B-C,yes,A-B-C,23,7,5021,NA
ACVEFRSUAPSEQ,English,any advances,purple,grey,royalblue,Every player hit some of his shots,none-half-half,half-half-none,A-B,yes,A-B,28,1,5884,NA
ACVEFRSUAPSEQ,English,any advances,yellow,grey,pink,Every player hit all of his shots,half-half-all,half-half-all,A-B-C,yes,A-B-C,1,1,8462,NA
ACVEFRSUAPSEQ,English,any advances,royalblue,brown,lightblue,At least one player will advance,half-all-all,half-all-all,A-B-C,yes,A-B-C,0,7,9814,NA
ACVEFRSUAPSEQ,English,any advances,wheat,pink,midnight,Player C will be disappointed,none-all-all,all-all-none,A-B,yes,A-B,3,7,6046,NA
ACVEFRSUAPSEQ,English,any advances,darkorange,lightblue,brown,Exactly one player hit all of his shots,none-all-all,none-all-all,B-C,yes,B-C,2,1,7262,NA
ACVEFRSUAPSEQ,English,any advances,grey,lightorange,midnight,Player B made shots,none-none-all,all-none-none,A,yes,A,5,4,6392,NA
ACVEFRSUAPSEQ,English,any advances,tan,lightorange,grey,Player A will be pleased,none-half-half,none-half-half,B-C,yes,B-C,4,1,6366,NA
ACVEFRSUAPSEQ,English,any advances,purple,midnight,lightblue,No player hit all of his shots,half-half-half,half-half-half,A-B-C,yes,A-B-C,7,7,6654,NA
ACVEFRSUAPSEQ,English,any advances,lavender,yellow,tan,Most of the players will advance,none-none-none,none-none-none,none,yes,none,6,1,4838,NA
ACVEFRSUAPSEQ,English,any advances,yellow,lightblue,grey,Player C will be pleased,none-half-half,half-half-none,A-B,yes,A-B,9,1,4743,NA
ACVEFRSUAPSEQ,English,any advances,royalblue,grey,midnight,Player A will be disappointed,half-half-all,all-half-half,A-B-C,yes,A-B-C,8,1,6310,NA
ACVEFRSUAPSEQ,English,any advances,yellow,darkorange,brown,One player will advance,none-none-half,none-none-half,C,yes,C,11,7,6374,NA
ACVEFRSUAPSEQ,English,any advances,brown,pink,lavender,Player B will be pleased,none-none-none,none-none-none,none,yes,none,10,1,3783,NA
ACVEFRSUAPSEQ,English,any advances,pink,yellow,lavender,Player B will advance,half-all-all,all-half-all,A-B-C,yes,A-B-C,13,7,6584,NA
ACVEFRSUAPSEQ,English,any advances,darkorange,grey,royalblue,All of the players will advance,none-all-all,all-all-none,A-B,yes,A-B,12,1,5376,NA
ACVEFRSUAPSEQ,English,any advances,wheat,brown,grey,Every player hit none of his shots,none-half-all,none-half-all,B-C,yes,B-C,15,1,6495,NA
ACVEFRSUAPSEQ,English,any advances,midnight,royalblue,wheat,Player B will be disappointed,none-half-all,none-all-half,B-C,yes,B-C,14,1,5701,NA
ACVEFRSUAPSEQ,English,any advances,midnight,lightorange,brown,All the players will advance,none-none-all,none-none-all,C,yes,C,17,1,3948,NA
ACVEFRSUAPSEQ,English,any advances,wheat,brown,pink,Player C made shots,none-none-half,none-half-none,B,yes,B,16,4,6272,NA
ACVEFRSUAPSEQ,English,any advances,midnight,lightorange,yellow,Player A made shots,none-half-all,half-none-all,A-C,yes,A-C,19,7,6143,NA
ACVEFRSUAPSEQ,English,any advances,grey,yellow,lightorange,Player A will advance,all-all-all,all-all-all,A-B-C,yes,A-B-C,18,7,8551,NA
ACVEFRSUAPSEQ,English,any advances,grey,midnight,yellow,Player A was the star player of the round,most-none-all,most-none-all,A-C,yes,A-C,-1,1,10323,yes
ACVEFRSUAPSEQ,English,any advances,midnight,brown,pink,Player C messed up,all-all-none,all-all-none,A-B,yes,A-B,-3,7,46254,no
ACVEFRSUAPSEQ,English,any advances,lightblue,pink,lightorange,Player B will advance to the next round,all-few-none,all-few-none,A-B,yes,A-B,-2,7,11694,yes
AGSAGD846SPOU,english,all advances,lightblue,grey,lavender,Player C will be disappointed,half-half-half,half-half-half,none,yes,none,24,7,8622,NA
AGSAGD846SPOU,english,all advances,seafoam,pink,grey,Player A made shots,half-half-half,half-half-half,none,yes,none,25,6,8861,NA
AGSAGD846SPOU,english,all advances,purple,pink,lightorange,No player hit all of his shots,half-all-all,all-half-all,A-C,yes,A-C,26,1,9146,NA
AGSAGD846SPOU,english,all advances,pink,tan,seafoam,All of the players will advance,none-all-all,all-all-none,A-B,yes,A-B,27,1,8390,NA
AGSAGD846SPOU,english,all advances,darkorange,wheat,brown,Exactly one player hit all of his shots,none-none-none,none-none-none,none,yes,none,20,1,5662,NA
AGSAGD846SPOU,english,all advances,yellow,tan,lightorange,Player C will advance,none-half-half,half-half-none,none,yes,none,21,1,6525,NA
AGSAGD846SPOU,english,all advances,seafoam,lightorange,brown,Every player hit none of his shots,half-all-all,all-half-all,A-C,yes,A-C,22,1,11454,NA
AGSAGD846SPOU,english,all advances,purple,lavender,brown,No player hit none of his shots,none-half-all,none-all-half,B,yes,B,23,1,6958,NA
AGSAGD846SPOU,english,all advances,grey,royalblue,darkorange,Player B made shots,none-half-all,none-all-half,B,yes,B,28,7,6894,NA
AGSAGD846SPOU,english,all advances,darkorange,purple,royalblue,Player C will be pleased,none-half-half,none-half-half,none,yes,none,1,5,46638,NA
AGSAGD846SPOU,english,all advances,midnight,pink,seafoam,Exactly one player hit some of his shots,none-all-all,all-all-none,A-B,yes,A-B,0,1,30883,NA
AGSAGD846SPOU,english,all advances,lightorange,purple,pink,Most of the players will advance,none-half-all,half-all-none,B,yes,B,3,2,15965,NA
AGSAGD846SPOU,english,all advances,brown,seafoam,wheat,Player C made shots,half-half-half,half-half-half,none,yes,none,2,7,16843,NA
AGSAGD846SPOU,english,all advances,lightorange,purple,yellow,None of the players will advance,none-none-none,none-none-none,none,yes,none,5,7,10117,NA
AGSAGD846SPOU,english,all advances,darkorange,pink,lightblue,Player B will be pleased,none-half-all,half-none-all,C,yes,C,4,1,11109,NA
AGSAGD846SPOU,english,all advances,yellow,wheat,lightorange,All the players will advance,none-half-half,half-none-half,none,yes,none,7,1,13997,NA
AGSAGD846SPOU,english,all advances,royalblue,lightblue,purple,Player B will be disappointed,none-all-all,all-none-all,A-C,yes,A-C,6,7,9687,NA
AGSAGD846SPOU,english,all advances,pink,midnight,lightblue,At least one player will advance,all-all-all,all-all-all,A-B-C,yes,A-B-C,9,4,22917,NA
AGSAGD846SPOU,english,all advances,lightorange,lightblue,seafoam,Player A will be pleased,none-half-all,none-all-half,B,yes,B,8,1,10422,NA
AGSAGD846SPOU,english,all advances,darkorange,royalblue,yellow,Every player hit all of his shots,none-half-all,none-half-all,C,yes,C,11,1,12087,NA
AGSAGD846SPOU,english,all advances,grey,wheat,tan,Three players will advance,none-all-all,none-all-all,B-C,yes,B-C,10,1,8429,NA
AGSAGD846SPOU,english,all advances,wheat,royalblue,darkorange,Player A will be disappointed,half-all-all,half-all-all,B-C,yes,B-C,13,7,7982,NA
AGSAGD846SPOU,english,all advances,purple,lightorange,lavender,Player B will advance,none-half-half,half-none-half,none,yes,none,12,1,7780,NA
AGSAGD846SPOU,english,all advances,seafoam,lightblue,pink,Player A will advance,all-all-all,all-all-all,A-B-C,yes,A-B-C,15,7,9590,NA
AGSAGD846SPOU,english,all advances,brown,yellow,lightorange,Every player hit some of his shots,half-all-all,half-all-all,B-C,yes,B-C,14,6,11550,NA
AGSAGD846SPOU,english,all advances,lightblue,pink,brown,Two players will advance,none-half-all,none-half-all,C,yes,C,17,1,7238,NA
AGSAGD846SPOU,english,all advances,midnight,purple,darkorange,One player will advance,none-none-all,none-all-none,B,yes,B,16,7,6399,NA
AGSAGD846SPOU,english,all advances,yellow,purple,royalblue,Exactly one player hit none of his shots,half-half-all,half-half-all,C,yes,C,19,1,8514,NA
AGSAGD846SPOU,english,all advances,lightblue,lightorange,wheat,No player hit some of his shots,all-all-all,all-all-all,A-B-C,yes,A-B-C,18,1,8453,NA
AGSAGD846SPOU,english,all advances,pink,purple,brown,Player A was the star player of the round,most-none-all,most-none-all,C,yes,C,-1,1,29592,yes
AGSAGD846SPOU,english,all advances,tan,midnight,seafoam,Player C messed up,all-all-none,all-all-none,A-B,no,A-B,-3,7,35842,yes
AGSAGD846SPOU,english,all advances,lightorange,darkorange,pink,Player B will advance to the next round,all-few-none,all-few-none,A,yes,A,-2,1,28206,yes
A14CMEND2C5TO1,english,all advances,lightblue,grey,tan,Player B will advance,half-all-all,all-all-half,A-B,yes,A-B,24,7,8721,NA
A14CMEND2C5TO1,english,all advances,royalblue,seafoam,yellow,Every player hit all of his shots,none-none-half,half-none-none,none,yes,none,25,1,6446,NA
A14CMEND2C5TO1,english,all advances,grey,wheat,lightblue,All the players will advance,none-half-half,half-none-half,none,yes,none,26,1,3965,NA
A14CMEND2C5TO1,english,all advances,grey,midnight,yellow,Most of the players will advance,none-all-all,all-all-none,A-B,yes,A-B,27,7,5658,NA
A14CMEND2C5TO1,english,all advances,seafoam,tan,lavender,Player B will be disappointed,half-all-all,half-all-all,B-C,yes,B-C,20,1,16035,NA
A14CMEND2C5TO1,english,all advances,lightblue,lavender,seafoam,Exactly one player hit all of his shots,none-none-half,none-half-none,none,yes,none,21,1,11559,NA
A14CMEND2C5TO1,english,all advances,seafoam,royalblue,tan,Exactly one player hit some of his shots,none-half-all,none-all-half,B,yes,B,22,7,8147,NA
A14CMEND2C5TO1,english,all advances,royalblue,grey,brown,Player B will be pleased,none-none-half,half-none-none,none,yes,none,23,1,4504,NA
A14CMEND2C5TO1,english,all advances,lightblue,lavender,midnight,Two players will advance,half-half-half,half-half-half,none,yes,none,28,1,3209,NA
A14CMEND2C5TO1,english,all advances,lightblue,brown,midnight,Player A will advance,half-all-all,half-all-all,B-C,yes,B-C,1,1,12946,NA
A14CMEND2C5TO1,english,all advances,purple,tan,lightorange,All of the players will advance,none-none-all,all-none-none,A,yes,A,0,1,18034,NA
A14CMEND2C5TO1,english,all advances,yellow,midnight,tan,Player C will be disappointed,all-all-all,all-all-all,A-B-C,yes,A-B-C,3,1,14426,NA
A14CMEND2C5TO1,english,all advances,brown,pink,lightblue,Every player hit some of his shots,all-all-all,all-all-all,A-B-C,yes,A-B-C,2,2,16876,NA
A14CMEND2C5TO1,english,all advances,lavender,darkorange,pink,No player hit some of his shots,none-half-half,half-none-half,none,yes,none,5,1,12941,NA
A14CMEND2C5TO1,english,all advances,wheat,grey,lavender,Player C made shots,half-half-half,half-half-half,none,yes,none,4,5,11773,NA
A14CMEND2C5TO1,english,all advances,pink,midnight,darkorange,Player A made shots,none-none-all,all-none-none,A,yes,A,7,7,10757,NA
A14CMEND2C5TO1,english,all advances,lavender,lightorange,royalblue,Player B made shots,none-all-all,all-all-none,A-B,yes,A-B,6,7,10847,NA
A14CMEND2C5TO1,english,all advances,pink,grey,yellow,Exactly one player hit none of his shots,none-none-all,none-none-all,C,yes,C,9,1,10083,NA
A14CMEND2C5TO1,english,all advances,lightblue,pink,lightorange,Every player hit none of his shots,none-half-half,half-half-none,none,yes,none,8,1,11814,NA
A14CMEND2C5TO1,english,all advances,lightorange,yellow,seafoam,At least one player will advance,none-half-all,none-all-half,B,yes,B,11,7,13256,NA
A14CMEND2C5TO1,english,all advances,darkorange,royalblue,grey,One player will advance,half-half-half,half-half-half,none,yes,none,10,1,8012,NA
A14CMEND2C5TO1,english,all advances,grey,purple,seafoam,Three players will advance,none-all-all,none-all-all,B-C,yes,B-C,13,1,16148,NA
A14CMEND2C5TO1,english,all advances,darkorange,midnight,lightorange,Player C will advance,half-all-all,all-half-all,A-C,yes,A-C,12,7,18915,NA
A14CMEND2C5TO1,english,all advances,seafoam,tan,royalblue,Player A will be disappointed,none-all-all,all-none-all,A-C,yes,A-C,15,1,12136,NA
A14CMEND2C5TO1,english,all advances,yellow,midnight,royalblue,Player A will be pleased,none-half-all,half-all-none,B,yes,B,14,1,17819,NA
A14CMEND2C5TO1,english,all advances,brown,pink,purple,None of the players will advance,half-half-half,half-half-half,none,yes,none,17,7,8212,NA
A14CMEND2C5TO1,english,all advances,pink,wheat,lightorange,No player hit all of his shots,half-half-half,half-half-half,none,yes,none,16,7,11698,NA
A14CMEND2C5TO1,english,all advances,purple,lightblue,lavender,No player hit none of his shots,half-half-half,half-half-half,none,yes,none,19,7,10060,NA
A14CMEND2C5TO1,english,all advances,lightorange,brown,grey,Player C will be pleased,none-none-none,none-none-none,none,yes,none,18,1,8329,NA
A14CMEND2C5TO1,english,all advances,lightorange,purple,pink,Player A was the star player of the round,most-none-all,most-none-all,C,yes,C,-1,2,103029,yes
A14CMEND2C5TO1,english,all advances,lightorange,royalblue,tan,Player C messed up,all-all-none,all-all-none,A-B,yes,A-B,-3,7,26370,yes
A14CMEND2C5TO1,english,all advances,brown,wheat,seafoam,Player B will advance to the next round,all-few-none,all-few-none,A,yes,A,-2,1,63745,yes
A2V0YYQ1SR04DT,English,any advances,wheat,tan,grey,One player will advance,none-none-all,none-all-none,B,yes,B,24,7,3559,NA
A2V0YYQ1SR04DT,English,any advances,purple,pink,grey,Player C will advance,none-none-all,all-none-none,A,yes,A,25,1,4101,NA
A2V0YYQ1SR04DT,English,any advances,purple,lavender,midnight,Exactly one player hit all of his shots,none-half-all,none-all-half,B-C,yes,B-C,26,7,8313,NA
A2V0YYQ1SR04DT,English,any advances,lavender,lightorange,purple,At least one player will advance,none-none-none,none-none-none,none,yes,none,27,1,5681,NA
A2V0YYQ1SR04DT,English,any advances,tan,lightblue,seafoam,Player A will advance,none-none-half,none-none-half,C,yes,C,20,1,3264,NA
A2V0YYQ1SR04DT,English,any advances,seafoam,lightorange,pink,Player C will be pleased,none-half-half,half-none-half,A-C,yes,A-C,21,5,6708,NA
A2V0YYQ1SR04DT,English,any advances,lavender,grey,tan,Player C will be disappointed,none-half-half,half-half-none,A-B,yes,A-B,22,7,5745,NA
A2V0YYQ1SR04DT,English,any advances,lavender,tan,darkorange,Three players will advance,half-all-all,all-all-half,A-B-C,yes,A-B-C,23,7,7962,NA
A2V0YYQ1SR04DT,English,any advances,pink,seafoam,lightblue,Every player hit all of his shots,none-half-all,half-all-none,A-B,yes,A-B,28,1,6828,NA
A2V0YYQ1SR04DT,English,any advances,grey,midnight,yellow,All of the players will advance,none-half-all,half-none-all,A-C,yes,A-C,1,2,7505,NA
A2V0YYQ1SR04DT,English,any advances,seafoam,lavender,lightblue,Most of the players will advance,half-all-all,all-half-all,A-B-C,yes,A-B-C,0,7,13786,NA
A2V0YYQ1SR04DT,English,any advances,midnight,grey,lightblue,Player C made shots,all-all-all,all-all-all,A-B-C,yes,A-B-C,3,7,6594,NA
A2V0YYQ1SR04DT,English,any advances,pink,lightorange,darkorange,None of the players will advance,half-half-all,half-half-all,A-B-C,yes,A-B-C,2,1,7087,NA
A2V0YYQ1SR04DT,English,any advances,lightblue,seafoam,tan,Player A made shots,half-half-all,half-all-half,A-B-C,yes,A-B-C,5,6,6244,NA
A2V0YYQ1SR04DT,English,any advances,darkorange,wheat,seafoam,Player A will be disappointed,half-all-all,all-half-all,A-B-C,yes,A-B-C,4,1,8006,NA
A2V0YYQ1SR04DT,English,any advances,lightorange,pink,yellow,Player B will advance,half-all-all,all-half-all,A-B-C,yes,A-B-C,7,7,8227,NA
A2V0YYQ1SR04DT,English,any advances,seafoam,lightorange,tan,Player B will be disappointed,half-half-half,half-half-half,A-B-C,yes,A-B-C,6,4,9857,NA
A2V0YYQ1SR04DT,English,any advances,brown,midnight,grey,Two players will advance,half-all-all,all-half-all,A-B-C,yes,A-B-C,9,2,8671,NA
A2V0YYQ1SR04DT,English,any advances,pink,lightorange,midnight,Every player hit some of his shots,none-none-all,all-none-none,A,yes,A,8,1,8291,NA
A2V0YYQ1SR04DT,English,any advances,darkorange,brown,lightorange,Exactly one player hit none of his shots,half-half-all,half-half-all,A-B-C,yes,A-B-C,11,1,9640,NA
A2V0YYQ1SR04DT,English,any advances,lightorange,brown,pink,No player hit some of his shots,none-none-none,none-none-none,none,yes,none,10,7,5489,NA
A2V0YYQ1SR04DT,English,any advances,yellow,tan,grey,Player B will be pleased,half-half-all,half-all-half,A-B-C,yes,A-B-C,13,7,7152,NA
A2V0YYQ1SR04DT,English,any advances,grey,royalblue,yellow,No player hit none of his shots,half-half-all,half-all-half,A-B-C,yes,A-B-C,12,1,6459,NA
A2V0YYQ1SR04DT,English,any advances,grey,lavender,midnight,Player B made shots,half-half-all,all-half-half,A-B-C,yes,A-B-C,15,6,7367,NA
A2V0YYQ1SR04DT,English,any advances,tan,wheat,lightblue,Exactly one player hit some of his shots,none-none-all,none-all-none,B,yes,B,14,7,4899,NA
A2V0YYQ1SR04DT,English,any advances,midnight,tan,purple,Every player hit none of his shots,none-half-all,half-all-none,A-B,yes,A-B,17,1,7576,NA
A2V0YYQ1SR04DT,English,any advances,pink,darkorange,lightblue,All the players will advance,none-none-half,none-half-none,B,yes,B,16,1,4558,NA
A2V0YYQ1SR04DT,English,any advances,lightorange,grey,tan,Player A will be pleased,none-half-all,none-all-half,B-C,yes,B-C,19,1,6056,NA
A2V0YYQ1SR04DT,English,any advances,wheat,darkorange,lightorange,No player hit all of his shots,half-half-all,all-half-half,A-B-C,yes,A-B-C,18,1,8736,NA
A2V0YYQ1SR04DT,English,any advances,lightblue,yellow,wheat,Player A was the star player of the round,most-none-all,most-none-all,A-C,yes,A-C,-1,1,11408,yes
A2V0YYQ1SR04DT,English,any advances,wheat,lavender,purple,Player C messed up,all-all-none,all-all-none,A-B,yes,A-B,-3,6,65411,no
A2V0YYQ1SR04DT,English,any advances,seafoam,royalblue,grey,Player B will advance to the next round,all-few-none,all-few-none,A-B,yes,A-B,-2,7,18801,yes
A2859W7COFU82O,English,all advances,darkorange,midnight,lavender,Every player hit all of his shots,none-none-none,none-none-none,none,yes,none,24,1,4592,NA
A2859W7COFU82O,English,all advances,yellow,lightorange,seafoam,Player B made shots,none-none-none,none-none-none,none,yes,none,25,1,3644,NA
A2859W7COFU82O,English,all advances,darkorange,royalblue,lightblue,Three players will advance,none-half-all,all-none-half,A,yes,A,26,1,4597,NA
A2859W7COFU82O,English,all advances,brown,grey,pink,Player C will be disappointed,none-none-half,none-half-none,none,yes,none,27,6,5725,NA
A2859W7COFU82O,English,all advances,lavender,brown,lightorange,Exactly one player hit all of his shots,none-none-all,none-all-none,B,yes,B,20,7,7923,NA
A2859W7COFU82O,English,all advances,royalblue,lightorange,brown,Player A will be disappointed,none-none-none,none-none-none,none,yes,none,21,6,5551,NA
A2859W7COFU82O,English,all advances,royalblue,brown,midnight,At least one player will advance,none-none-half,none-none-half,none,yes,none,22,1,4197,NA
A2859W7COFU82O,English,all advances,grey,lightorange,lavender,No player hit all of his shots,half-all-all,all-half-all,A-C,yes,A-C,23,1,8230,NA
A2859W7COFU82O,English,all advances,lightorange,royalblue,darkorange,Player C will advance,none-half-all,none-all-half,B,yes,B,28,1,3886,NA
A2859W7COFU82O,English,all advances,seafoam,brown,lightorange,Player C will be pleased,half-all-all,half-all-all,B-C,yes,B-C,1,4,11201,NA
A2859W7COFU82O,English,all advances,lavender,grey,lightblue,No player hit some of his shots,none-none-all,all-none-none,A,yes,A,0,1,13971,NA
A2859W7COFU82O,English,all advances,midnight,wheat,seafoam,Player A will advance,none-none-all,none-all-none,B,yes,B,3,1,5544,NA
A2859W7COFU82O,English,all advances,darkorange,purple,lavender,Player B will be pleased,none-half-all,half-none-all,C,yes,C,2,1,7555,NA
A2859W7COFU82O,English,all advances,seafoam,yellow,grey,Exactly one player hit some of his shots,half-half-half,half-half-half,none,yes,none,5,1,7685,NA
A2859W7COFU82O,English,all advances,brown,lavender,yellow,None of the players will advance,none-none-all,none-all-none,B,yes,B,4,1,6483,NA
A2859W7COFU82O,English,all advances,brown,tan,lightblue,Most of the players will advance,half-half-half,half-half-half,none,yes,none,7,1,4014,NA
A2859W7COFU82O,English,all advances,yellow,tan,lightblue,Exactly one player hit none of his shots,none-half-half,half-half-none,none,yes,none,6,7,9368,NA
A2859W7COFU82O,English,all advances,tan,grey,royalblue,Every player hit none of his shots,half-half-half,half-half-half,none,yes,none,9,1,6572,NA
A2859W7COFU82O,English,all advances,seafoam,yellow,brown,All the players will advance,half-half-all,half-half-all,C,yes,C,8,1,4251,NA
A2859W7COFU82O,English,all advances,yellow,lavender,midnight,Two players will advance,half-half-all,half-all-half,B,yes,B,11,1,5971,NA
A2859W7COFU82O,English,all advances,purple,brown,midnight,Player A made shots,none-half-half,none-half-half,none,yes,none,10,1,5547,NA
A2859W7COFU82O,English,all advances,purple,lightblue,brown,Player B will be disappointed,none-half-all,half-all-none,B,yes,B,13,1,8399,NA
A2859W7COFU82O,English,all advances,grey,lavender,midnight,Player A will be pleased,all-all-all,all-all-all,A-B-C,yes,A-B-C,12,6,8508,NA
A2859W7COFU82O,English,all advances,lightorange,grey,tan,One player will advance,none-all-all,none-all-all,B-C,yes,B-C,15,1,6576,NA
A2859W7COFU82O,English,all advances,tan,brown,royalblue,Player B will advance,none-half-half,half-none-half,none,yes,none,14,1,4845,NA
A2859W7COFU82O,English,all advances,brown,wheat,lightorange,Every player hit some of his shots,none-all-all,all-none-all,A-C,yes,A-C,17,1,9024,NA
A2859W7COFU82O,English,all advances,lightblue,brown,royalblue,Player C made shots,none-half-all,all-none-half,A,yes,A,16,6,6962,NA
A2859W7COFU82O,English,all advances,brown,pink,lightorange,No player hit none of his shots,none-none-all,none-all-none,B,yes,B,19,1,6377,NA
A2859W7COFU82O,English,all advances,lavender,tan,lightorange,All of the players will advance,none-all-all,none-all-all,B-C,yes,B-C,18,1,4618,NA
A2859W7COFU82O,English,all advances,tan,midnight,seafoam,Player A was the star player of the round,most-none-all,most-none-all,C,no,C,-1,1,16416,yes
A2859W7COFU82O,English,all advances,royalblue,grey,tan,Player C messed up,all-all-none,all-all-none,A-B,yes,A-B,-3,6,21140,yes
A2859W7COFU82O,English,all advances,lavender,purple,pink,Player B will advance to the next round,all-few-none,all-few-none,A,yes,A,-2,1,13459,yes
A21BL0MUZXOUN8,Lithuanian,all advances,wheat,pink,grey,Exactly one player hit none of his shots,half-half-half,half-half-half,none,yes,none,24,1,5934,NA
A21BL0MUZXOUN8,Lithuanian,all advances,royalblue,lightorange,brown,No player hit all of his shots,none-half-all,all-half-none,A,yes,A,25,1,7676,NA
A21BL0MUZXOUN8,Lithuanian,all advances,pink,darkorange,lightblue,Exactly one player hit some of his shots,none-none-half,none-none-half,none,yes,none,26,7,56379,NA
A21BL0MUZXOUN8,Lithuanian,all advances,lightorange,seafoam,wheat,All of the players will advance,half-all-all,half-all-all,B-C,yes,B-C,27,1,8879,NA
A21BL0MUZXOUN8,Lithuanian,all advances,lightblue,darkorange,seafoam,Two players will advance,none-half-all,half-all-none,B,yes,B,20,1,7481,NA
A21BL0MUZXOUN8,Lithuanian,all advances,royalblue,midnight,lightorange,Player B will advance,none-none-all,none-all-none,B,yes,B,21,7,7542,NA
A21BL0MUZXOUN8,Lithuanian,all advances,wheat,lavender,royalblue,Player A will be pleased,none-none-half,half-none-none,none,yes,none,22,1,9514,NA
A21BL0MUZXOUN8,Lithuanian,all advances,lightblue,purple,tan,No player hit some of his shots,none-all-all,all-none-all,A-C,yes,A-C,23,1,16994,NA
A21BL0MUZXOUN8,Lithuanian,all advances,grey,lavender,tan,Every player hit none of his shots,half-half-half,half-half-half,none,yes,none,28,1,9609,NA
A21BL0MUZXOUN8,Lithuanian,all advances,lavender,royalblue,yellow,Most of the players will advance,all-all-all,all-all-all,A-B-C,yes,A-B-C,1,4,15405,NA
A21BL0MUZXOUN8,Lithuanian,all advances,yellow,tan,lavender,Player A will advance,none-none-all,all-none-none,A,yes,A,0,7,9473,NA
A21BL0MUZXOUN8,Lithuanian,all advances,midnight,darkorange,lightblue,Three players will advance,none-all-all,all-none-all,A-C,yes,A-C,3,1,10701,NA
A21BL0MUZXOUN8,Lithuanian,all advances,wheat,lavender,pink,Player B will be pleased,none-half-half,none-half-half,none,yes,none,2,1,24617,NA
A21BL0MUZXOUN8,Lithuanian,all advances,seafoam,darkorange,royalblue,No player hit none of his shots,half-all-all,half-all-all,B-C,yes,B-C,5,7,24832,NA
A21BL0MUZXOUN8,Lithuanian,all advances,wheat,purple,lightblue,Player B will be disappointed,none-half-half,half-half-none,none,yes,none,4,4,10775,NA
A21BL0MUZXOUN8,Lithuanian,all advances,midnight,yellow,lavender,At least one player will advance,none-all-all,none-all-all,B-C,yes,B-C,7,7,11251,NA
A21BL0MUZXOUN8,Lithuanian,all advances,purple,lightorange,tan,Player C will advance,none-none-none,none-none-none,none,yes,none,6,1,8493,NA
A21BL0MUZXOUN8,Lithuanian,all advances,brown,purple,lightblue,None of the players will advance,none-half-half,half-half-none,none,yes,none,9,7,10284,NA
A21BL0MUZXOUN8,Lithuanian,all advances,seafoam,brown,midnight,Player C will be disappointed,half-all-all,all-half-all,A-C,yes,A-C,8,1,8015,NA
A21BL0MUZXOUN8,Lithuanian,all advances,seafoam,brown,lightorange,Exactly one player hit all of his shots,none-all-all,all-all-none,A-B,yes,A-B,11,4,20566,NA
A21BL0MUZXOUN8,Lithuanian,all advances,lightorange,seafoam,purple,Every player hit all of his shots,none-none-none,none-none-none,none,yes,none,10,1,8538,NA
A21BL0MUZXOUN8,Lithuanian,all advances,royalblue,yellow,purple,Every player hit some of his shots,half-all-all,half-all-all,B-C,yes,B-C,13,7,9931,NA
A21BL0MUZXOUN8,Lithuanian,all advances,pink,yellow,lavender,Player A made shots,none-half-all,all-none-half,A,yes,A,12,7,13810,NA
A21BL0MUZXOUN8,Lithuanian,all advances,wheat,purple,grey,Player C will be pleased,none-none-none,none-none-none,none,yes,none,15,1,8648,NA
A21BL0MUZXOUN8,Lithuanian,all advances,yellow,royalblue,lavender,Player A will be disappointed,none-none-none,none-none-none,none,yes,none,14,4,17182,NA
A21BL0MUZXOUN8,Lithuanian,all advances,darkorange,grey,purple,One player will advance,all-all-all,all-all-all,A-B-C,yes,A-B-C,17,1,14843,NA
A21BL0MUZXOUN8,Lithuanian,all advances,tan,pink,lavender,Player B made shots,none-all-all,none-all-all,B-C,yes,B-C,16,7,9110,NA
A21BL0MUZXOUN8,Lithuanian,all advances,lightorange,purple,darkorange,Player C made shots,none-none-none,none-none-none,none,yes,none,19,1,6523,NA
A21BL0MUZXOUN8,Lithuanian,all advances,pink,yellow,lightorange,All the players will advance,half-all-all,half-all-all,B-C,yes,B-C,18,1,8375,NA
A21BL0MUZXOUN8,Lithuanian,all advances,yellow,wheat,tan,Player A was the star player of the round,most-none-all,most-none-all,C,yes,C,-1,1,16220,yes
A21BL0MUZXOUN8,Lithuanian,all advances,midnight,seafoam,royalblue,Player C messed up,all-all-none,all-all-none,A-B,yes,A-B,-3,7,51415,no
A21BL0MUZXOUN8,Lithuanian,all advances,seafoam,yellow,lightorange,Player B will advance to the next round,all-few-none,all-few-none,A,yes,A,-2,1,16501,yes
AAKL8L5X64LWD,English,all advances,grey,royalblue,purple,Every player hit all of his shots,none-none-half,none-none-half,none,yes,none,24,1,7231,NA
AAKL8L5X64LWD,English,all advances,brown,midnight,lightblue,Every player hit some of his shots,none-none-half,half-none-none,none,yes,none,25,1,3874,NA
AAKL8L5X64LWD,English,all advances,grey,brown,pink,Two players will advance,none-none-half,half-none-none,none,yes,none,26,1,3953,NA
AAKL8L5X64LWD,English,all advances,tan,purple,yellow,All the players will advance,all-all-all,all-all-all,A-B-C,yes,A-B-C,27,7,5333,NA
AAKL8L5X64LWD,English,all advances,midnight,yellow,lightorange,No player hit all of his shots,none-none-all,all-none-none,A,yes,A,20,1,4816,NA
AAKL8L5X64LWD,English,all advances,lightorange,tan,purple,Player B will be pleased,none-none-half,none-none-half,none,yes,none,21,1,4035,NA
AAKL8L5X64LWD,English,all advances,brown,lavender,wheat,Player A will be pleased,none-half-half,none-half-half,none,yes,none,22,1,4825,NA
AAKL8L5X64LWD,English,all advances,pink,brown,darkorange,Player A made shots,none-half-all,half-all-none,B,yes,B,23,1,10686,NA
AAKL8L5X64LWD,English,all advances,lavender,grey,seafoam,Player B made shots,all-all-all,all-all-all,A-B-C,yes,A-B-C,28,7,6806,NA
AAKL8L5X64LWD,English,all advances,lightorange,grey,tan,Player C will be pleased,none-half-all,none-half-all,C,yes,C,1,7,4459,NA
AAKL8L5X64LWD,English,all advances,wheat,seafoam,tan,Player B will advance,none-none-none,none-none-none,none,yes,none,0,1,4830,NA
AAKL8L5X64LWD,English,all advances,yellow,midnight,purple,Exactly one player hit none of his shots,none-all-all,all-all-none,A-B,yes,A-B,3,6,7127,NA
AAKL8L5X64LWD,English,all advances,darkorange,lightblue,yellow,None of the players will advance,none-half-half,half-none-half,none,yes,none,2,7,3249,NA
AAKL8L5X64LWD,English,all advances,seafoam,brown,lightblue,Three players will advance,none-none-all,none-all-none,B,yes,B,5,1,4716,NA
AAKL8L5X64LWD,English,all advances,tan,wheat,pink,No player hit none of his shots,none-none-all,none-none-all,C,yes,C,4,1,6531,NA
AAKL8L5X64LWD,English,all advances,tan,grey,seafoam,All of the players will advance,none-half-all,half-none-all,C,yes,C,7,1,4243,NA
AAKL8L5X64LWD,English,all advances,midnight,purple,pink,Player A will advance,half-half-half,half-half-half,none,yes,none,6,1,5372,NA
AAKL8L5X64LWD,English,all advances,brown,yellow,midnight,Exactly one player hit all of his shots,none-half-all,half-none-all,C,yes,C,9,7,4318,NA
AAKL8L5X64LWD,English,all advances,lightblue,midnight,wheat,Player C will advance,none-all-all,none-all-all,B-C,yes,B-C,8,5,6015,NA
AAKL8L5X64LWD,English,all advances,brown,tan,seafoam,No player hit some of his shots,none-none-all,all-none-none,A,yes,A,11,6,9134,NA
AAKL8L5X64LWD,English,all advances,seafoam,lavender,brown,Player C will be disappointed,none-all-all,none-all-all,B-C,yes,B-C,10,1,8433,NA
AAKL8L5X64LWD,English,all advances,pink,tan,lightblue,One player will advance,half-half-all,half-all-half,B,yes,B,13,7,3625,NA
AAKL8L5X64LWD,English,all advances,pink,darkorange,tan,Every player hit none of his shots,half-half-all,half-all-half,B,yes,B,12,1,6081,NA
AAKL8L5X64LWD,English,all advances,tan,grey,brown,Player C made shots,half-all-all,half-all-all,B-C,yes,B-C,15,7,7394,NA
AAKL8L5X64LWD,English,all advances,grey,midnight,brown,Most of the players will advance,all-all-all,all-all-all,A-B-C,yes,A-B-C,14,2,5306,NA
AAKL8L5X64LWD,English,all advances,grey,lightblue,royalblue,Player A will be disappointed,none-half-all,half-all-none,B,yes,B,17,7,5979,NA
AAKL8L5X64LWD,English,all advances,tan,midnight,lightorange,Player B will be disappointed,half-half-half,half-half-half,none,yes,none,16,7,4846,NA
AAKL8L5X64LWD,English,all advances,grey,wheat,brown,Exactly one player hit some of his shots,none-none-all,none-all-none,B,yes,B,19,1,6642,NA
AAKL8L5X64LWD,English,all advances,grey,seafoam,lavender,At least one player will advance,half-half-half,half-half-half,none,yes,none,18,1,4493,NA
AAKL8L5X64LWD,English,all advances,lightblue,midnight,lightorange,Player A was the star player of the round,most-none-all,most-none-all,C,yes,C,-1,1,8730,yes
AAKL8L5X64LWD,English,all advances,tan,pink,brown,Player C messed up,all-all-none,all-all-none,A-B,yes,A-B,-3,7,13151,yes
AAKL8L5X64LWD,English,all advances,royalblue,tan,seafoam,Player B will advance to the next round,all-few-none,all-few-none,A,yes,A,-2,1,8824,yes
ARTSG66V2MOJ6,English,all advances,purple,wheat,lightblue,Every player hit none of his shots,half-all-all,half-all-all,B-C,yes,B-C,24,1,6986,NA
ARTSG66V2MOJ6,English,all advances,purple,darkorange,pink,Exactly one player hit none of his shots,half-all-all,half-all-all,B-C,yes,B-C,25,1,6629,NA
ARTSG66V2MOJ6,English,all advances,purple,brown,wheat,Every player hit all of his shots,half-half-all,all-half-half,A,yes,A,26,1,7166,NA
ARTSG66V2MOJ6,English,all advances,wheat,darkorange,pink,Player A will advance,none-half-half,none-half-half,none,yes,none,27,1,4103,NA
ARTSG66V2MOJ6,English,all advances,royalblue,wheat,tan,Every player hit some of his shots,none-none-none,none-none-none,none,yes,none,20,1,3770,NA
ARTSG66V2MOJ6,English,all advances,royalblue,pink,tan,Player B will be disappointed,all-all-all,all-all-all,A-B-C,yes,A-B-C,21,2,9648,NA
ARTSG66V2MOJ6,English,all advances,lavender,lightorange,darkorange,At least one player will advance,all-all-all,all-all-all,A-B-C,yes,A-B-C,22,5,9510,NA
ARTSG66V2MOJ6,English,all advances,tan,yellow,pink,All the players will advance,none-all-all,all-all-none,A-B,yes,A-B,23,2,6149,NA
ARTSG66V2MOJ6,English,all advances,seafoam,lightorange,lightblue,Player A made shots,half-half-half,half-half-half,none,yes,none,28,6,3050,NA
ARTSG66V2MOJ6,English,all advances,wheat,yellow,lightorange,No player hit some of his shots,half-half-all,half-half-all,C,yes,C,1,1,17038,NA
ARTSG66V2MOJ6,English,all advances,lavender,seafoam,midnight,Three players will advance,half-all-all,all-half-all,A-C,yes,A-C,0,1,10118,NA
ARTSG66V2MOJ6,English,all advances,purple,brown,midnight,Player C will advance,none-half-all,half-none-all,C,yes,C,3,7,6995,NA
ARTSG66V2MOJ6,English,all advances,grey,midnight,wheat,Player C will be pleased,none-none-none,none-none-none,none,yes,none,2,1,7323,NA
ARTSG66V2MOJ6,English,all advances,royalblue,midnight,lavender,Player C will be disappointed,half-half-half,half-half-half,none,yes,none,5,6,7469,NA
ARTSG66V2MOJ6,English,all advances,pink,brown,lightorange,Player C made shots,none-all-all,all-all-none,A-B,yes,A-B,4,2,11165,NA
ARTSG66V2MOJ6,English,all advances,grey,lightorange,midnight,No player hit all of his shots,half-half-all,half-all-half,B,yes,B,7,1,8748,NA
ARTSG66V2MOJ6,English,all advances,wheat,midnight,tan,Exactly one player hit some of his shots,none-half-all,half-all-none,B,yes,B,6,5,10530,NA
ARTSG66V2MOJ6,English,all advances,brown,purple,darkorange,One player will advance,half-all-all,all-all-half,A-B,yes,A-B,9,1,8066,NA
ARTSG66V2MOJ6,English,all advances,darkorange,wheat,grey,Exactly one player hit all of his shots,half-all-all,half-all-all,B-C,yes,B-C,8,1,7887,NA
ARTSG66V2MOJ6,English,all advances,midnight,lightorange,wheat,Most of the players will advance,none-half-all,half-none-all,C,yes,C,11,1,7362,NA
ARTSG66V2MOJ6,English,all advances,yellow,grey,midnight,None of the players will advance,none-none-all,none-all-none,B,yes,B,10,1,5517,NA
ARTSG66V2MOJ6,English,all advances,lightorange,wheat,lightblue,Player B will advance,none-half-half,half-half-none,none,yes,none,13,1,7116,NA
ARTSG66V2MOJ6,English,all advances,tan,pink,midnight,No player hit none of his shots,half-half-all,all-half-half,A,yes,A,12,6,12913,NA
ARTSG66V2MOJ6,English,all advances,pink,darkorange,royalblue,Player A will be disappointed,all-all-all,all-all-all,A-B-C,yes,A-B-C,15,2,7582,NA
ARTSG66V2MOJ6,English,all advances,pink,grey,lightblue,All of the players will advance,all-all-all,all-all-all,A-B-C,yes,A-B-C,14,7,11961,NA
ARTSG66V2MOJ6,English,all advances,royalblue,midnight,pink,Two players will advance,half-half-half,half-half-half,none,yes,none,17,1,4606,NA
ARTSG66V2MOJ6,English,all advances,royalblue,darkorange,midnight,Player A will be pleased,none-all-all,all-none-all,A-C,yes,A-C,16,6,7123,NA
ARTSG66V2MOJ6,English,all advances,midnight,purple,brown,Player B will be pleased,none-none-none,none-none-none,none,yes,none,19,1,6136,NA
ARTSG66V2MOJ6,English,all advances,grey,midnight,tan,Player B made shots,none-none-half,none-half-none,none,yes,none,18,6,8273,NA
ARTSG66V2MOJ6,English,all advances,royalblue,pink,lightblue,Player A was the star player of the round,most-none-all,most-none-all,C,yes,C,-1,1,10631,yes
ARTSG66V2MOJ6,English,all advances,lightblue,midnight,royalblue,Player C messed up,all-all-none,all-all-none,A-B,yes,A-B,-3,7,16469,yes
ARTSG66V2MOJ6,English,all advances,royalblue,grey,wheat,Player B will advance to the next round,all-few-none,all-few-none,A,yes,A,-2,1,10020,yes
A12N4I8SCLIXC0,English,all advances,wheat,royalblue,midnight,None of the players will advance,half-half-all,all-half-half,A,yes,A,24,1,5215,NA
A12N4I8SCLIXC0,English,all advances,wheat,pink,tan,Player A will be disappointed,none-none-half,none-half-none,none,yes,none,25,7,5374,NA
A12N4I8SCLIXC0,English,all advances,brown,seafoam,lavender,Player C will be pleased,half-half-half,half-half-half,none,yes,none,26,1,3790,NA
A12N4I8SCLIXC0,English,all advances,purple,lightblue,seafoam,All the players will advance,none-half-all,none-all-half,B,yes,B,27,1,6321,NA
A12N4I8SCLIXC0,English,all advances,lightorange,lavender,yellow,Exactly one player hit none of his shots,none-none-none,none-none-none,none,yes,none,20,1,6264,NA
A12N4I8SCLIXC0,English,all advances,lavender,midnight,purple,Player B made shots,none-none-half,none-none-half,none,yes,none,21,1,5764,NA
A12N4I8SCLIXC0,English,all advances,pink,grey,brown,Two players will advance,none-none-half,none-none-half,none,yes,none,22,1,4908,NA
A12N4I8SCLIXC0,English,all advances,pink,seafoam,tan,No player hit all of his shots,half-half-half,half-half-half,none,yes,none,23,7,4696,NA
A12N4I8SCLIXC0,English,all advances,lightblue,lightorange,tan,No player hit some of his shots,none-half-all,all-half-none,A,yes,A,28,1,6496,NA
A12N4I8SCLIXC0,English,all advances,brown,wheat,lightblue,Three players will advance,none-half-half,half-none-half,none,yes,none,1,1,13921,NA
A12N4I8SCLIXC0,English,all advances,lavender,brown,darkorange,One player will advance,none-all-all,none-all-all,B-C,yes,B-C,0,1,13118,NA
A12N4I8SCLIXC0,English,all advances,royalblue,brown,lightorange,Every player hit some of his shots,none-none-none,none-none-none,none,yes,none,3,1,6771,NA
A12N4I8SCLIXC0,English,all advances,darkorange,pink,royalblue,Most of the players will advance,none-half-all,none-all-half,B,yes,B,2,1,26478,NA
A12N4I8SCLIXC0,English,all advances,royalblue,yellow,darkorange,Player A made shots,half-all-all,all-half-all,A-C,yes,A-C,5,7,10666,NA
A12N4I8SCLIXC0,English,all advances,grey,royalblue,tan,Player C made shots,half-half-half,half-half-half,none,yes,none,4,7,5668,NA
A12N4I8SCLIXC0,English,all advances,royalblue,pink,brown,Player A will be pleased,half-all-all,all-half-all,A-C,yes,A-C,7,7,10518,NA
A12N4I8SCLIXC0,English,all advances,purple,lightorange,tan,Every player hit all of his shots,none-none-all,all-none-none,A,yes,A,6,1,7754,NA
A12N4I8SCLIXC0,English,all advances,seafoam,brown,lavender,Exactly one player hit some of his shots,half-half-all,half-half-all,C,yes,C,9,1,7393,NA
A12N4I8SCLIXC0,English,all advances,lavender,brown,pink,Exactly one player hit all of his shots,none-all-all,none-all-all,B-C,yes,B-C,8,1,8372,NA
A12N4I8SCLIXC0,English,all advances,tan,brown,purple,Player B will be pleased,none-half-all,none-all-half,B,yes,B,11,7,6872,NA
A12N4I8SCLIXC0,English,all advances,seafoam,lavender,grey,No player hit none of his shots,none-all-all,none-all-all,B-C,yes,B-C,10,1,7788,NA
A12N4I8SCLIXC0,English,all advances,grey,pink,wheat,All of the players will advance,none-all-all,all-all-none,A-B,yes,A-B,13,1,7987,NA
A12N4I8SCLIXC0,English,all advances,brown,purple,lightblue,Player C will advance,none-half-half,none-half-half,none,yes,none,12,1,6000,NA
A12N4I8SCLIXC0,English,all advances,lavender,seafoam,tan,Player B will be disappointed,none-all-all,all-all-none,A-B,yes,A-B,15,1,6388,NA
A12N4I8SCLIXC0,English,all advances,darkorange,grey,seafoam,At least one player will advance,all-all-all,all-all-all,A-B-C,yes,A-B-C,14,7,10728,NA
A12N4I8SCLIXC0,English,all advances,yellow,purple,seafoam,Every player hit none of his shots,none-none-half,none-none-half,none,yes,none,17,1,7060,NA
A12N4I8SCLIXC0,English,all advances,brown,lightblue,lightorange,Player A will advance,half-half-half,half-half-half,none,yes,none,16,1,5894,NA
A12N4I8SCLIXC0,English,all advances,lightblue,yellow,lavender,Player C will be disappointed,half-half-half,half-half-half,none,yes,none,19,7,6702,NA
A12N4I8SCLIXC0,English,all advances,lavender,pink,lightblue,Player B will advance,none-all-all,all-none-all,A-C,yes,A-C,18,1,6520,NA
A12N4I8SCLIXC0,English,all advances,darkorange,brown,pink,Player A was the star player of the round,most-none-all,most-none-all,C,yes,C,-1,1,12022,yes
A12N4I8SCLIXC0,English,all advances,brown,tan,pink,Player C messed up,all-all-none,all-all-none,A-B,yes,A-B,-3,7,36559,no
A12N4I8SCLIXC0,English,all advances,midnight,seafoam,wheat,Player B will advance to the next round,all-few-none,all-few-none,A,yes,A,-2,1,10759,yes
A2OCMGN24E6CDB,english,all advances,lavender,seafoam,yellow,Player A made shots,none-all-all,all-none-all,A-C,yes,A-C,24,4,12933,NA
A2OCMGN24E6CDB,english,all advances,darkorange,lavender,pink,Player C made shots,none-half-all,all-half-none,A,yes,A,25,1,7068,NA
A2OCMGN24E6CDB,english,all advances,purple,brown,grey,Player C will be disappointed,none-half-half,half-half-none,none,yes,none,26,6,8573,NA
A2OCMGN24E6CDB,english,all advances,lightorange,pink,royalblue,All the players will advance,half-half-all,all-half-half,A,yes,A,27,1,6028,NA
A2OCMGN24E6CDB,english,all advances,grey,midnight,brown,Player B will advance,half-half-all,half-all-half,B,yes,B,20,7,7982,NA
A2OCMGN24E6CDB,english,all advances,purple,seafoam,pink,No player hit all of his shots,none-half-all,half-none-all,C,yes,C,21,1,7219,NA
A2OCMGN24E6CDB,english,all advances,darkorange,royalblue,yellow,Most of the players will advance,none-all-all,all-none-all,A-C,yes,A-C,22,6,12431,NA
A2OCMGN24E6CDB,english,all advances,purple,pink,yellow,One player will advance,half-half-all,all-half-half,A,yes,A,23,5,9622,NA
A2OCMGN24E6CDB,english,all advances,grey,pink,brown,At least one player will advance,half-half-half,half-half-half,none,yes,none,28,1,4052,NA
A2OCMGN24E6CDB,english,all advances,pink,darkorange,purple,Player B made shots,half-half-half,half-half-half,none,yes,none,1,5,27414,NA
A2OCMGN24E6CDB,english,all advances,lightblue,royalblue,wheat,Exactly one player hit some of his shots,none-none-half,none-half-none,none,yes,none,0,5,25613,NA
A2OCMGN24E6CDB,english,all advances,darkorange,grey,purple,Every player hit none of his shots,none-none-half,none-half-none,none,yes,none,3,1,10599,NA
A2OCMGN24E6CDB,english,all advances,grey,tan,lightblue,No player hit none of his shots,none-none-all,all-none-none,A,yes,A,2,1,16698,NA
A2OCMGN24E6CDB,english,all advances,seafoam,royalblue,tan,Player A will advance,half-all-all,all-all-half,A-B,yes,A-B,5,4,14934,NA
A2OCMGN24E6CDB,english,all advances,brown,lavender,seafoam,Player A will be pleased,none-none-half,half-none-none,none,yes,none,4,2,12827,NA
A2OCMGN24E6CDB,english,all advances,lightorange,seafoam,royalblue,Every player hit all of his shots,none-none-none,none-none-none,none,yes,none,7,1,10469,NA
A2OCMGN24E6CDB,english,all advances,pink,royalblue,darkorange,Every player hit some of his shots,half-all-all,all-half-all,A-C,yes,A-C,6,5,14117,NA
A2OCMGN24E6CDB,english,all advances,lightorange,lavender,midnight,Player B will be pleased,none-none-none,none-none-none,none,yes,none,9,1,8372,NA
A2OCMGN24E6CDB,english,all advances,purple,seafoam,tan,Exactly one player hit all of his shots,none-half-half,half-half-none,none,yes,none,8,1,10749,NA
A2OCMGN24E6CDB,english,all advances,brown,darkorange,lightorange,Player A will be disappointed,none-half-all,none-all-half,B,yes,B,11,5,12254,NA
A2OCMGN24E6CDB,english,all advances,tan,yellow,wheat,Two players will advance,none-none-half,half-none-none,none,yes,none,10,1,14015,NA
A2OCMGN24E6CDB,english,all advances,brown,seafoam,tan,None of the players will advance,half-half-all,half-half-all,C,yes,C,13,1,8031,NA
A2OCMGN24E6CDB,english,all advances,brown,midnight,seafoam,Three players will advance,none-all-all,none-all-all,B-C,yes,B-C,12,1,8313,NA
A2OCMGN24E6CDB,english,all advances,wheat,royalblue,lavender,No player hit some of his shots,none-half-half,half-none-half,none,yes,none,15,1,9067,NA
A2OCMGN24E6CDB,english,all advances,darkorange,pink,purple,All of the players will advance,none-none-all,all-none-none,A,yes,A,14,1,6795,NA
A2OCMGN24E6CDB,english,all advances,lavender,pink,yellow,Exactly one player hit none of his shots,none-none-none,none-none-none,none,yes,none,17,1,8378,NA
A2OCMGN24E6CDB,english,all advances,brown,royalblue,darkorange,Player C will advance,none-none-all,none-none-all,C,yes,C,16,7,9223,NA
A2OCMGN24E6CDB,english,all advances,midnight,brown,royalblue,Player C will be pleased,none-none-none,none-none-none,none,yes,none,19,1,6292,NA
A2OCMGN24E6CDB,english,all advances,darkorange,pink,midnight,Player B will be disappointed,all-all-all,all-all-all,A-B-C,yes,A-B-C,18,1,10974,NA
A2OCMGN24E6CDB,english,all advances,tan,lavender,royalblue,Player A was the star player of the round,most-none-all,most-none-all,C,yes,C,-1,1,13966,yes
A2OCMGN24E6CDB,english,all advances,grey,purple,lightblue,Player C messed up,all-all-none,all-all-none,A-B,yes,A-B,-3,7,29583,yes
A2OCMGN24E6CDB,english,all advances,tan,lightblue,darkorange,Player B will advance to the next round,all-few-none,all-few-none,A,yes,A,-2,1,15497,yes
A3UWCESDTE4F3Z,Russian,any advances,yellow,midnight,pink,Exactly one player hit all of his shots,none-half-half,half-half-none,A-B,yes,A-B,24,1,10035,NA
A3UWCESDTE4F3Z,Russian,any advances,wheat,lightorange,lavender,Player A made shots,none-half-half,none-half-half,B-C,yes,B-C,25,1,11923,NA
A3UWCESDTE4F3Z,Russian,any advances,pink,royalblue,lavender,Player C made shots,none-half-all,half-none-all,A-C,yes,A-C,26,4,18387,NA
A3UWCESDTE4F3Z,Russian,any advances,grey,lightorange,lavender,None of the players will advance,half-half-half,half-half-half,A-B-C,yes,A-B-C,27,1,9276,NA
A3UWCESDTE4F3Z,Russian,any advances,grey,darkorange,tan,Player B will be disappointed,half-all-all,all-all-half,A-B-C,yes,A-B-C,20,1,10588,NA
A3UWCESDTE4F3Z,Russian,any advances,pink,yellow,midnight,Player B will be pleased,none-none-none,none-none-none,none,yes,none,21,1,8700,NA
A3UWCESDTE4F3Z,Russian,any advances,midnight,seafoam,tan,At least one player will advance,none-none-none,none-none-none,none,yes,none,22,1,5527,NA
A3UWCESDTE4F3Z,Russian,any advances,lavender,tan,royalblue,Every player hit none of his shots,none-none-half,none-half-none,B,yes,B,23,1,7193,NA
A3UWCESDTE4F3Z,Russian,any advances,lavender,darkorange,seafoam,Player A will be disappointed,none-none-none,none-none-none,none,yes,none,28,4,9837,NA
A3UWCESDTE4F3Z,Russian,any advances,brown,midnight,lightblue,No player hit some of his shots,half-half-all,half-all-half,A-B-C,yes,A-B-C,1,1,76306,NA
A3UWCESDTE4F3Z,Russian,any advances,grey,tan,yellow,All of the players will advance,none-half-all,all-none-half,A-C,yes,A-C,0,1,23838,NA
A3UWCESDTE4F3Z,Russian,any advances,grey,darkorange,lightorange,Player C will be pleased,none-none-all,none-none-all,C,yes,C,3,7,23191,NA
A3UWCESDTE4F3Z,Russian,any advances,tan,lightblue,midnight,Player A will be pleased,all-all-all,all-all-all,A-B-C,yes,A-B-C,2,1,24668,NA
A3UWCESDTE4F3Z,Russian,any advances,wheat,lightblue,lightorange,One player will advance,half-half-all,all-half-half,A-B-C,yes,A-B-C,5,1,18577,NA
A3UWCESDTE4F3Z,Russian,any advances,grey,pink,lightorange,Player B will advance,none-none-half,none-half-none,B,yes,B,4,4,28489,NA
A3UWCESDTE4F3Z,Russian,any advances,pink,midnight,lightorange,No player hit all of his shots,half-all-all,all-all-half,A-B-C,no,A-B-C,7,1,60039,NA
A3UWCESDTE4F3Z,Russian,any advances,tan,grey,lightblue,Most of the players will advance,none-none-all,none-none-all,C,yes,C,6,1,7889,NA
A3UWCESDTE4F3Z,Russian,any advances,yellow,royalblue,grey,Player A will advance,none-half-all,half-all-none,A-B,yes,A-B,9,7,13461,NA
A3UWCESDTE4F3Z,Russian,any advances,seafoam,darkorange,brown,Every player hit all of his shots,none-none-half,none-half-none,B,yes,B,8,1,19299,NA
A3UWCESDTE4F3Z,Russian,any advances,tan,yellow,grey,Player C will be disappointed,half-half-all,all-half-half,A-B-C,yes,A-B-C,11,1,11659,NA
A3UWCESDTE4F3Z,Russian,any advances,lightorange,grey,pink,Player B made shots,half-half-half,half-half-half,A-B-C,yes,A-B-C,10,4,17338,NA
A3UWCESDTE4F3Z,Russian,any advances,lightblue,yellow,lavender,Two players will advance,none-none-half,half-none-none,A,yes,A,13,1,10004,NA
A3UWCESDTE4F3Z,Russian,any advances,royalblue,wheat,darkorange,Player C will advance,all-all-all,all-all-all,A-B-C,yes,A-B-C,12,4,12852,NA
A3UWCESDTE4F3Z,Russian,any advances,darkorange,wheat,yellow,Exactly one player hit some of his shots,half-half-half,half-half-half,A-B-C,yes,A-B-C,15,1,18419,NA
A3UWCESDTE4F3Z,Russian,any advances,lightblue,tan,darkorange,No player hit none of his shots,none-none-all,all-none-none,A,yes,A,14,1,19444,NA
A3UWCESDTE4F3Z,Russian,any advances,midnight,tan,wheat,All the players will advance,none-half-half,none-half-half,B-C,yes,B-C,17,1,9710,NA
A3UWCESDTE4F3Z,Russian,any advances,lightorange,lightblue,royalblue,Exactly one player hit none of his shots,half-half-half,half-half-half,A-B-C,yes,A-B-C,16,1,15165,NA
A3UWCESDTE4F3Z,Russian,any advances,tan,lavender,grey,Three players will advance,half-all-all,all-half-all,A-B-C,yes,A-B-C,19,7,46742,NA
A3UWCESDTE4F3Z,Russian,any advances,wheat,darkorange,pink,Every player hit some of his shots,none-all-all,all-all-none,A-B,yes,A-B,18,1,11288,NA
A3UWCESDTE4F3Z,Russian,any advances,seafoam,pink,lightblue,Player A was the star player of the round,most-none-all,most-none-all,A-C,yes,A-C,-1,1,27790,yes
A3UWCESDTE4F3Z,Russian,any advances,royalblue,tan,pink,Player C messed up,all-all-none,all-all-none,A-B,yes,A-B,-3,6,64364,yes
A3UWCESDTE4F3Z,Russian,any advances,grey,midnight,darkorange,Player B will advance to the next round,all-few-none,all-few-none,A-B,yes,A-B,-2,7,44454,yes
ASX1CKKF6OXL1,English,any advances,tan,midnight,brown,Exactly one player hit all of his shots,none-none-all,all-none-none,A,yes,A,24,6,22821,NA
ASX1CKKF6OXL1,English,any advances,lightblue,tan,brown,Player A will be disappointed,none-all-all,all-all-none,A-B,yes,A-B,25,1,6542,NA
ASX1CKKF6OXL1,English,any advances,grey,lightblue,royalblue,Player B will be disappointed,none-half-all,none-all-half,B-C,yes,B-C,26,1,11775,NA
ASX1CKKF6OXL1,English,any advances,pink,purple,royalblue,Player C will be pleased,all-all-all,all-all-all,A-B-C,yes,A-B-C,27,7,9120,NA
ASX1CKKF6OXL1,English,any advances,seafoam,brown,wheat,No player hit all of his shots,none-half-all,none-half-all,B-C,yes,B-C,20,1,7455,NA
ASX1CKKF6OXL1,English,any advances,lightblue,brown,grey,Player C made shots,none-none-all,all-none-none,A,yes,A,21,1,6838,NA
ASX1CKKF6OXL1,English,any advances,wheat,midnight,pink,Player A will advance,none-half-half,half-none-half,A-C,yes,A-C,22,6,20912,NA
ASX1CKKF6OXL1,English,any advances,yellow,brown,pink,All of the players will advance,none-half-all,none-half-all,B-C,yes,B-C,23,1,6040,NA
ASX1CKKF6OXL1,English,any advances,royalblue,lavender,lightblue,All the players will advance,none-none-half,half-none-none,A,yes,A,28,1,4215,NA
ASX1CKKF6OXL1,English,any advances,seafoam,midnight,darkorange,Exactly one player hit none of his shots,half-half-half,half-half-half,A-B-C,yes,A-B-C,1,1,12890,NA
ASX1CKKF6OXL1,English,any advances,grey,yellow,wheat,One player will advance,none-none-none,none-none-none,none,yes,none,0,1,6143,NA
ASX1CKKF6OXL1,English,any advances,lightblue,darkorange,yellow,Every player hit all of his shots,none-all-all,all-all-none,A-B,yes,A-B,3,1,6319,NA
ASX1CKKF6OXL1,English,any advances,royalblue,tan,pink,Every player hit some of his shots,none-half-half,half-half-none,A-B,yes,A-B,2,1,8981,NA
ASX1CKKF6OXL1,English,any advances,tan,yellow,lightorange,No player hit some of his shots,none-none-all,all-none-none,A,yes,A,5,2,13127,NA
ASX1CKKF6OXL1,English,any advances,lavender,lightorange,grey,Player B will advance,none-all-all,all-all-none,A-B,yes,A-B,4,6,9654,NA
ASX1CKKF6OXL1,English,any advances,purple,lavender,brown,Player B will be pleased,none-none-all,none-all-none,B,yes,B,7,7,5064,NA
ASX1CKKF6OXL1,English,any advances,tan,pink,lightblue,Player A will be pleased,half-half-half,half-half-half,A-B-C,yes,A-B-C,6,6,9878,NA
ASX1CKKF6OXL1,English,any advances,lightblue,tan,midnight,Every player hit none of his shots,none-half-half,half-none-half,A-C,yes,A-C,9,1,7151,NA
ASX1CKKF6OXL1,English,any advances,lightorange,darkorange,grey,Most of the players will advance,none-none-all,none-all-none,B,yes,B,8,1,5760,NA
ASX1CKKF6OXL1,English,any advances,grey,purple,seafoam,Player C will advance,none-all-all,none-all-all,B-C,yes,B-C,11,6,11301,NA
ASX1CKKF6OXL1,English,any advances,brown,purple,grey,Three players will advance,half-half-all,half-all-half,A-B-C,yes,A-B-C,10,7,6902,NA
ASX1CKKF6OXL1,English,any advances,lightblue,yellow,lightorange,Player C will be disappointed,none-half-half,half-half-none,A-B,yes,A-B,13,7,7046,NA
ASX1CKKF6OXL1,English,any advances,purple,yellow,seafoam,Exactly one player hit some of his shots,all-all-all,all-all-all,A-B-C,yes,A-B-C,12,1,6359,NA
ASX1CKKF6OXL1,English,any advances,lightorange,midnight,tan,Player A made shots,all-all-all,all-all-all,A-B-C,yes,A-B-C,15,6,9494,NA
ASX1CKKF6OXL1,English,any advances,seafoam,midnight,tan,No player hit none of his shots,none-all-all,all-none-all,A-C,yes,A-C,14,1,6648,NA
ASX1CKKF6OXL1,English,any advances,grey,lavender,wheat,Two players will advance,none-half-half,half-none-half,A-C,yes,A-C,17,7,8317,NA
ASX1CKKF6OXL1,English,any advances,purple,pink,seafoam,Player B made shots,half-half-all,half-half-all,A-B-C,yes,A-B-C,16,6,8130,NA
ASX1CKKF6OXL1,English,any advances,tan,lavender,pink,At least one player will advance,none-half-half,none-half-half,B-C,yes,B-C,19,3,10509,NA
ASX1CKKF6OXL1,English,any advances,pink,grey,midnight,None of the players will advance,all-all-all,all-all-all,A-B-C,yes,A-B-C,18,1,8999,NA
ASX1CKKF6OXL1,English,any advances,midnight,wheat,grey,Player A was the star player of the round,most-none-all,most-none-all,A-C,yes,A-C,-1,2,19845,yes
ASX1CKKF6OXL1,English,any advances,lightblue,purple,midnight,Player C messed up,all-all-none,all-all-none,A-B,no,A-B,-3,6,62823,no
ASX1CKKF6OXL1,English,any advances,brown,royalblue,darkorange,Player B will advance to the next round,all-few-none,all-few-none,A-B,yes,A-B,-2,6,19822,no
A2OG7XGWOX5ZEF,English,any advances,lightblue,darkorange,midnight,Exactly one player hit none of his shots,half-all-all,all-all-half,A-B-C,yes,A-B-C,24,1,18221,NA
A2OG7XGWOX5ZEF,English,any advances,tan,purple,lightorange,One player will advance,none-all-all,all-none-all,A-C,yes,A-C,25,1,6141,NA
A2OG7XGWOX5ZEF,English,any advances,yellow,royalblue,midnight,Player C made shots,none-half-half,half-half-none,A-B,yes,A-B,26,1,7622,NA
A2OG7XGWOX5ZEF,English,any advances,lightblue,grey,tan,Player A will be pleased,none-none-half,half-none-none,A,yes,A,27,7,5887,NA
A2OG7XGWOX5ZEF,English,any advances,lavender,wheat,midnight,None of the players will advance,all-all-all,all-all-all,A-B-C,yes,A-B-C,20,1,6303,NA
A2OG7XGWOX5ZEF,English,any advances,grey,lightorange,brown,Two players will advance,none-none-none,none-none-none,none,yes,none,21,1,4357,NA
A2OG7XGWOX5ZEF,English,any advances,brown,lightblue,darkorange,Player C will be pleased,half-all-all,all-half-all,A-B-C,yes,A-B-C,22,6,10535,NA
A2OG7XGWOX5ZEF,English,any advances,midnight,seafoam,wheat,Exactly one player hit some of his shots,none-none-none,none-none-none,none,yes,none,23,1,5214,NA
A2OG7XGWOX5ZEF,English,any advances,midnight,lavender,purple,Player B will be pleased,half-all-all,all-all-half,A-B-C,yes,A-B-C,28,6,7782,NA
A2OG7XGWOX5ZEF,English,any advances,brown,darkorange,purple,All the players will advance,none-half-all,all-half-none,A-B,yes,A-B,1,1,15838,NA
A2OG7XGWOX5ZEF,English,any advances,midnight,darkorange,royalblue,Every player hit all of his shots,none-half-half,none-half-half,B-C,yes,B-C,0,1,11530,NA
A2OG7XGWOX5ZEF,English,any advances,royalblue,tan,lightblue,Player A will be disappointed,none-half-half,none-half-half,B-C,yes,B-C,3,7,11119,NA
A2OG7XGWOX5ZEF,English,any advances,royalblue,wheat,pink,Every player hit some of his shots,half-half-half,half-half-half,A-B-C,yes,A-B-C,2,7,14174,NA
A2OG7XGWOX5ZEF,English,any advances,royalblue,lightblue,wheat,Most of the players will advance,half-half-half,half-half-half,A-B-C,yes,A-B-C,5,2,11493,NA
A2OG7XGWOX5ZEF,English,any advances,brown,purple,lightblue,Every player hit none of his shots,none-none-half,half-none-none,A,yes,A,4,1,12794,NA
A2OG7XGWOX5ZEF,English,any advances,purple,midnight,lavender,Player A made shots,none-none-half,none-none-half,C,yes,C,7,1,6550,NA
A2OG7XGWOX5ZEF,English,any advances,lightorange,royalblue,darkorange,Three players will advance,none-none-none,none-none-none,none,yes,none,6,1,9941,NA
A2OG7XGWOX5ZEF,English,any advances,lavender,lightblue,darkorange,Player B made shots,none-half-all,all-half-none,A-B,yes,A-B,9,6,7821,NA
A2OG7XGWOX5ZEF,English,any advances,lavender,pink,yellow,Player A will advance,none-half-all,none-all-half,B-C,yes,B-C,8,1,7622,NA
A2OG7XGWOX5ZEF,English,any advances,darkorange,lightorange,pink,Player C will advance,none-none-all,none-all-none,B,yes,B,11,1,6677,NA
A2OG7XGWOX5ZEF,English,any advances,midnight,pink,wheat,At least one player will advance,none-none-all,all-none-none,A,yes,A,10,5,13894,NA
A2OG7XGWOX5ZEF,English,any advances,lavender,purple,grey,Exactly one player hit all of his shots,none-half-all,none-all-half,B-C,yes,B-C,13,7,12557,NA
A2OG7XGWOX5ZEF,English,any advances,lavender,darkorange,seafoam,No player hit none of his shots,half-half-all,all-half-half,A-B-C,yes,A-B-C,12,4,24911,NA
A2OG7XGWOX5ZEF,English,any advances,pink,purple,grey,Player B will be disappointed,none-none-half,none-half-none,B,yes,B,15,1,10194,NA
A2OG7XGWOX5ZEF,English,any advances,royalblue,purple,darkorange,Player B will advance,half-all-all,all-all-half,A-B-C,yes,A-B-C,14,5,16120,NA
A2OG7XGWOX5ZEF,English,any advances,pink,tan,seafoam,All of the players will advance,half-half-all,half-half-all,A-B-C,yes,A-B-C,17,7,6821,NA
A2OG7XGWOX5ZEF,English,any advances,darkorange,royalblue,lavender,Player C will be disappointed,none-none-none,none-none-none,none,yes,none,16,5,7535,NA
A2OG7XGWOX5ZEF,English,any advances,lightorange,tan,lightblue,No player hit all of his shots,none-none-none,none-none-none,none,yes,none,19,6,9406,NA
A2OG7XGWOX5ZEF,English,any advances,lightblue,grey,lightorange,No player hit some of his shots,none-all-all,all-all-none,A-B,yes,A-B,18,1,8734,NA
A2OG7XGWOX5ZEF,English,any advances,royalblue,purple,brown,Player A was the star player of the round,most-none-all,most-none-all,A-C,yes,A-C,-1,1,16486,yes
A2OG7XGWOX5ZEF,English,any advances,seafoam,brown,yellow,Player C messed up,all-all-none,all-all-none,A-B,yes,A-B,-3,7,19495,yes
A2OG7XGWOX5ZEF,English,any advances,seafoam,lightblue,brown,Player B will advance to the next round,all-few-none,all-few-none,A-B,yes,A-B,-2,7,20620,yes
A25ZADCJI3D5AF,English,any advances,lavender,darkorange,lightblue,Most of the players will advance,none-none-half,none-none-half,C,yes,C,24,1,6049,NA
A25ZADCJI3D5AF,English,any advances,lightblue,seafoam,darkorange,Every player hit some of his shots,none-none-none,none-none-none,none,yes,none,25,1,7045,NA
A25ZADCJI3D5AF,English,any advances,lavender,seafoam,pink,Exactly one player hit all of his shots,all-all-all,all-all-all,A-B-C,yes,A-B-C,26,1,7864,NA
A25ZADCJI3D5AF,English,any advances,royalblue,seafoam,wheat,Player A will advance,none-all-all,all-all-none,A-B,yes,A-B,27,7,6446,NA
A25ZADCJI3D5AF,English,any advances,lightblue,lightorange,brown,No player hit all of his shots,none-none-half,none-half-none,B,yes,B,20,7,9629,NA
A25ZADCJI3D5AF,English,any advances,royalblue,pink,purple,Exactly one player hit none of his shots,half-half-all,half-half-all,A-B-C,yes,A-B-C,21,1,8874,NA
A25ZADCJI3D5AF,English,any advances,midnight,yellow,seafoam,Player C made shots,none-none-all,all-none-none,A,yes,A,22,1,6605,NA
A25ZADCJI3D5AF,English,any advances,yellow,seafoam,royalblue,At least one player will advance,none-none-half,none-none-half,C,yes,C,23,7,6921,NA
A25ZADCJI3D5AF,English,any advances,lavender,pink,darkorange,Player A will be disappointed,half-half-half,half-half-half,A-B-C,yes,A-B-C,28,1,8303,NA
A25ZADCJI3D5AF,English,any advances,royalblue,wheat,brown,Player C will be pleased,half-all-all,half-all-all,A-B-C,yes,A-B-C,1,7,16785,NA
A25ZADCJI3D5AF,English,any advances,lightblue,tan,lightorange,Player B made shots,none-half-all,half-all-none,A-B,yes,A-B,0,5,21439,NA
A25ZADCJI3D5AF,English,any advances,royalblue,darkorange,lavender,Player C will be disappointed,none-none-half,half-none-none,A,yes,A,3,6,15362,NA
A25ZADCJI3D5AF,English,any advances,brown,tan,royalblue,Three players will advance,none-half-half,half-half-none,A-B,yes,A-B,2,1,10217,NA
A25ZADCJI3D5AF,English,any advances,seafoam,midnight,tan,One player will advance,none-none-none,none-none-none,none,yes,none,5,1,8639,NA
A25ZADCJI3D5AF,English,any advances,yellow,grey,pink,No player hit some of his shots,none-none-half,none-none-half,C,yes,C,4,1,12347,NA
A25ZADCJI3D5AF,English,any advances,lightblue,lightorange,royalblue,All of the players will advance,none-none-none,none-none-none,none,yes,none,7,1,7602,NA
A25ZADCJI3D5AF,English,any advances,grey,lavender,yellow,Player B will advance,none-none-all,none-all-none,B,yes,B,6,7,9773,NA
A25ZADCJI3D5AF,English,any advances,lightorange,yellow,seafoam,Player B will be disappointed,none-half-all,half-all-none,A-B,yes,A-B,9,1,9738,NA
A25ZADCJI3D5AF,English,any advances,lightorange,purple,lightblue,Player A will be pleased,half-all-all,all-all-half,A-B-C,yes,A-B-C,8,6,10064,NA
A25ZADCJI3D5AF,English,any advances,lightblue,grey,royalblue,Player C will advance,half-all-all,half-all-all,A-B-C,yes,A-B-C,11,7,15191,NA
A25ZADCJI3D5AF,English,any advances,wheat,tan,lavender,Two players will advance,half-all-all,all-all-half,A-B-C,yes,A-B-C,10,1,8494,NA
A25ZADCJI3D5AF,English,any advances,seafoam,brown,lightblue,Every player hit all of his shots,half-half-half,half-half-half,A-B-C,yes,A-B-C,13,1,8460,NA
A25ZADCJI3D5AF,English,any advances,pink,royalblue,lightblue,No player hit none of his shots,none-none-none,none-none-none,none,yes,none,12,1,35780,NA
A25ZADCJI3D5AF,English,any advances,lavender,wheat,purple,None of the players will advance,none-none-all,none-none-all,C,yes,C,15,1,10021,NA
A25ZADCJI3D5AF,English,any advances,pink,tan,lavender,All the players will advance,half-half-half,half-half-half,A-B-C,yes,A-B-C,14,7,7655,NA
A25ZADCJI3D5AF,English,any advances,seafoam,darkorange,lightorange,Player B will be pleased,none-none-none,none-none-none,none,yes,none,17,1,6137,NA
A25ZADCJI3D5AF,English,any advances,grey,purple,royalblue,Player A made shots,all-all-all,all-all-all,A-B-C,yes,A-B-C,16,5,11638,NA
A25ZADCJI3D5AF,English,any advances,wheat,yellow,royalblue,Exactly one player hit some of his shots,none-all-all,none-all-all,B-C,yes,B-C,19,1,9190,NA
A25ZADCJI3D5AF,English,any advances,tan,darkorange,midnight,Every player hit none of his shots,all-all-all,all-all-all,A-B-C,yes,A-B-C,18,1,8508,NA
A25ZADCJI3D5AF,English,any advances,tan,midnight,wheat,Player A was the star player of the round,most-none-all,most-none-all,A-C,yes,A-C,-1,1,17041,yes
A25ZADCJI3D5AF,English,any advances,purple,brown,wheat,Player C messed up,all-all-none,all-all-none,A-B,yes,A-B,-3,7,19775,yes
A25ZADCJI3D5AF,English,any advances,tan,grey,darkorange,Player B will advance to the next round,all-few-none,all-few-none,A-B,yes,A-B,-2,7,15279,yes
A26U4IKXMXT0ZA,english,any advances,lightblue,royalblue,tan,No player hit all of his shots,half-half-all,all-half-half,A-B-C,yes,A-B-C,24,1,7063,NA
A26U4IKXMXT0ZA,english,any advances,grey,tan,darkorange,No player hit some of his shots,none-none-half,half-none-none,A,yes,A,25,1,5574,NA
A26U4IKXMXT0ZA,english,any advances,yellow,brown,wheat,Player B made shots,none-none-none,none-none-none,none,yes,none,26,1,4478,NA
A26U4IKXMXT0ZA,english,any advances,grey,wheat,darkorange,Player B will advance,half-all-all,all-half-all,A-B-C,yes,A-B-C,27,7,10142,NA
A26U4IKXMXT0ZA,english,any advances,wheat,yellow,royalblue,Player A made shots,none-all-all,all-all-none,A-B,yes,A-B,20,7,5639,NA
A26U4IKXMXT0ZA,english,any advances,royalblue,darkorange,pink,None of the players will advance,half-half-half,half-half-half,A-B-C,yes,A-B-C,21,1,7430,NA
A26U4IKXMXT0ZA,english,any advances,darkorange,lightblue,lightorange,Player B will be disappointed,none-none-half,none-none-half,C,yes,C,22,7,5631,NA
A26U4IKXMXT0ZA,english,any advances,lightblue,seafoam,royalblue,Player A will advance,none-half-half,none-half-half,B-C,yes,B-C,23,1,8222,NA
A26U4IKXMXT0ZA,english,any advances,yellow,seafoam,grey,Exactly one player hit all of his shots,none-none-none,none-none-none,none,yes,none,28,1,3398,NA
A26U4IKXMXT0ZA,english,any advances,royalblue,wheat,yellow,Every player hit some of his shots,all-all-all,all-all-all,A-B-C,yes,A-B-C,1,1,12798,NA
A26U4IKXMXT0ZA,english,any advances,lightorange,grey,lavender,Most of the players will advance,half-half-all,half-all-half,A-B-C,yes,A-B-C,0,1,9593,NA
A26U4IKXMXT0ZA,english,any advances,wheat,midnight,darkorange,Every player hit none of his shots,half-half-half,half-half-half,A-B-C,yes,A-B-C,3,1,8582,NA
A26U4IKXMXT0ZA,english,any advances,lightorange,darkorange,yellow,All of the players will advance,none-none-half,none-half-none,B,yes,B,2,1,5534,NA
A26U4IKXMXT0ZA,english,any advances,lavender,royalblue,purple,Exactly one player hit none of his shots,half-all-all,all-half-all,A-B-C,yes,A-B-C,5,1,12318,NA
A26U4IKXMXT0ZA,english,any advances,brown,yellow,lavender,No player hit none of his shots,half-all-all,all-all-half,A-B-C,yes,A-B-C,4,1,13343,NA
A26U4IKXMXT0ZA,english,any advances,darkorange,seafoam,tan,At least one player will advance,none-none-all,all-none-none,A,yes,A,7,7,5854,NA
A26U4IKXMXT0ZA,english,any advances,midnight,grey,yellow,Two players will advance,half-all-all,all-half-all,A-B-C,yes,A-B-C,6,1,6926,NA
A26U4IKXMXT0ZA,english,any advances,tan,brown,royalblue,Player C made shots,none-none-none,none-none-none,none,yes,none,9,1,4319,NA
A26U4IKXMXT0ZA,english,any advances,wheat,purple,seafoam,Player C will be disappointed,none-half-half,none-half-half,B-C,yes,B-C,8,1,8078,NA
A26U4IKXMXT0ZA,english,any advances,tan,grey,purple,Player C will advance,half-half-half,half-half-half,A-B-C,yes,A-B-C,11,7,6630,NA
A26U4IKXMXT0ZA,english,any advances,brown,lavender,yellow,Player B will be pleased,none-half-all,none-all-half,B-C,yes,B-C,10,7,6670,NA
A26U4IKXMXT0ZA,english,any advances,yellow,wheat,tan,Exactly one player hit some of his shots,none-none-half,half-none-none,A,yes,A,13,7,4983,NA
A26U4IKXMXT0ZA,english,any advances,lightorange,pink,brown,Player C will be pleased,half-all-all,half-all-all,A-B-C,yes,A-B-C,12,7,6782,NA
A26U4IKXMXT0ZA,english,any advances,pink,tan,lightblue,Every player hit all of his shots,all-all-all,all-all-all,A-B-C,yes,A-B-C,15,7,7653,NA
A26U4IKXMXT0ZA,english,any advances,brown,tan,purple,One player will advance,none-half-all,all-none-half,A-C,yes,A-C,14,1,5711,NA
A26U4IKXMXT0ZA,english,any advances,tan,royalblue,lightblue,Three players will advance,none-none-half,none-half-none,B,yes,B,17,1,4398,NA
A26U4IKXMXT0ZA,english,any advances,purple,royalblue,pink,Player A will be pleased,half-half-half,half-half-half,A-B-C,yes,A-B-C,16,3,6950,NA
A26U4IKXMXT0ZA,english,any advances,lightorange,brown,purple,All the players will advance,half-half-half,half-half-half,A-B-C,yes,A-B-C,19,7,6783,NA
A26U4IKXMXT0ZA,english,any advances,lavender,lightblue,tan,Player A will be disappointed,none-half-half,half-none-half,A-C,yes,A-C,18,1,6478,NA
A26U4IKXMXT0ZA,english,any advances,royalblue,tan,lightorange,Player A was the star player of the round,most-none-all,most-none-all,A-C,yes,A-C,-1,1,10675,yes
A26U4IKXMXT0ZA,english,any advances,brown,wheat,purple,Player C messed up,all-all-none,all-all-none,A-B,yes,A-B,-3,7,56973,no
A26U4IKXMXT0ZA,english,any advances,lightorange,wheat,purple,Player B will advance to the next round,all-few-none,all-few-none,A-B,yes,A-B,-2,7,16839,yes
A2P2KRN6Y2CQ5B,chinese,all advances,midnight,tan,lightblue,Exactly one player hit all of his shots,none-none-half,none-none-half,none,yes,none,24,1,5813,NA
A2P2KRN6Y2CQ5B,chinese,all advances,purple,brown,lavender,Every player hit all of his shots,half-half-half,half-half-half,none,yes,none,25,1,5252,NA
A2P2KRN6Y2CQ5B,chinese,all advances,lightblue,grey,lightorange,Every player hit none of his shots,none-none-half,none-half-none,none,yes,none,26,1,7245,NA
A2P2KRN6Y2CQ5B,chinese,all advances,brown,wheat,darkorange,Every player hit some of his shots,half-half-half,half-half-half,none,yes,none,27,7,4653,NA
A2P2KRN6Y2CQ5B,chinese,all advances,seafoam,wheat,pink,Two players will advance,none-half-half,none-half-half,none,yes,none,20,1,4172,NA
A2P2KRN6Y2CQ5B,chinese,all advances,lightblue,midnight,yellow,No player hit all of his shots,half-half-half,half-half-half,none,yes,none,21,7,11415,NA
A2P2KRN6Y2CQ5B,chinese,all advances,lavender,midnight,seafoam,Player A will be pleased,none-none-all,none-none-all,C,yes,C,22,1,5229,NA
A2P2KRN6Y2CQ5B,chinese,all advances,royalblue,seafoam,purple,None of the players will advance,half-half-all,half-all-half,B,yes,B,23,1,5197,NA
A2P2KRN6Y2CQ5B,chinese,all advances,midnight,grey,lightblue,Player C will be disappointed,half-all-all,half-all-all,B-C,yes,B-C,28,1,5955,NA
A2P2KRN6Y2CQ5B,chinese,all advances,purple,midnight,brown,Player A will be disappointed,none-none-half,half-none-none,none,yes,none,1,6,11734,NA
A2P2KRN6Y2CQ5B,chinese,all advances,darkorange,wheat,lightblue,All the players will advance,none-none-none,none-none-none,none,yes,none,0,1,6870,NA
A2P2KRN6Y2CQ5B,chinese,all advances,lightorange,lightblue,wheat,Exactly one player hit none of his shots,half-half-all,all-half-half,A,yes,A,3,1,11725,NA
A2P2KRN6Y2CQ5B,chinese,all advances,tan,lightblue,midnight,Three players will advance,none-half-all,none-all-half,B,yes,B,2,1,6774,NA
A2P2KRN6Y2CQ5B,chinese,all advances,yellow,purple,tan,No player hit none of his shots,none-half-all,half-none-all,C,yes,C,5,7,9826,NA
A2P2KRN6Y2CQ5B,chinese,all advances,darkorange,yellow,purple,Player C made shots,none-all-all,none-all-all,B-C,yes,B-C,4,7,5085,NA
A2P2KRN6Y2CQ5B,chinese,all advances,brown,seafoam,midnight,Player C will be pleased,none-none-half,half-none-none,none,yes,none,7,1,6772,NA
A2P2KRN6Y2CQ5B,chinese,all advances,pink,midnight,royalblue,All of the players will advance,half-all-all,all-all-half,A-B,yes,A-B,6,1,6207,NA
A2P2KRN6Y2CQ5B,chinese,all advances,lightorange,brown,darkorange,One player will advance,none-none-all,all-none-none,A,yes,A,9,7,4948,NA
A2P2KRN6Y2CQ5B,chinese,all advances,lavender,darkorange,lightorange,No player hit some of his shots,none-all-all,all-all-none,A-B,no,A-B,8,1,11957,NA
A2P2KRN6Y2CQ5B,chinese,all advances,yellow,darkorange,pink,Player B will advance,none-none-half,none-half-none,none,yes,none,11,1,5221,NA
A2P2KRN6Y2CQ5B,chinese,all advances,purple,lightblue,lightorange,At least one player will advance,none-none-half,none-none-half,none,yes,none,10,1,4960,NA
A2P2KRN6Y2CQ5B,chinese,all advances,pink,wheat,yellow,Player B will be disappointed,half-half-all,half-all-half,B,yes,B,13,1,5309,NA
A2P2KRN6Y2CQ5B,chinese,all advances,brown,grey,midnight,Player A made shots,half-half-all,half-all-half,B,yes,B,12,7,5789,NA
A2P2KRN6Y2CQ5B,chinese,all advances,tan,lightblue,seafoam,Player B will be pleased,none-none-none,none-none-none,none,yes,none,15,1,4020,NA
A2P2KRN6Y2CQ5B,chinese,all advances,seafoam,grey,purple,Player A will advance,none-half-all,none-all-half,B,yes,B,14,1,5157,NA
A2P2KRN6Y2CQ5B,chinese,all advances,midnight,seafoam,yellow,Exactly one player hit some of his shots,none-all-all,none-all-all,B-C,yes,B-C,17,1,6181,NA
A2P2KRN6Y2CQ5B,chinese,all advances,royalblue,midnight,tan,Player B made shots,none-none-all,all-none-none,A,yes,A,16,1,5757,NA
A2P2KRN6Y2CQ5B,chinese,all advances,yellow,pink,seafoam,Most of the players will advance,half-half-all,half-half-all,C,yes,C,19,1,4101,NA
A2P2KRN6Y2CQ5B,chinese,all advances,royalblue,midnight,yellow,Player C will advance,none-all-all,all-all-none,A-B,yes,A-B,18,1,7373,NA
A2P2KRN6Y2CQ5B,chinese,all advances,darkorange,brown,lightblue,Player A was the star player of the round,most-none-all,most-none-all,C,yes,C,-1,2,10973,yes
A2P2KRN6Y2CQ5B,chinese,all advances,midnight,brown,royalblue,Player C messed up,all-all-none,all-all-none,A-B,yes,A-B,-3,6,81152,no
A2P2KRN6Y2CQ5B,chinese,all advances,darkorange,wheat,tan,Player B will advance to the next round,all-few-none,all-few-none,A,yes,A,-2,2,12866,yes
A2AZMTZISHIX2C,English,any advances,pink,royalblue,midnight,Player B made shots,half-all-all,all-all-half,A-B-C,yes,A-B-C,24,4,9202,NA
A2AZMTZISHIX2C,English,any advances,grey,pink,lightblue,Player C made shots,all-all-all,all-all-all,A-B-C,yes,A-B-C,25,4,7459,NA
A2AZMTZISHIX2C,English,any advances,seafoam,lightblue,pink,Player A made shots,none-none-none,none-none-none,none,yes,none,26,1,5558,NA
A2AZMTZISHIX2C,English,any advances,midnight,lavender,wheat,Exactly one player hit all of his shots,half-half-all,all-half-half,A-B-C,yes,A-B-C,27,7,8861,NA
A2AZMTZISHIX2C,English,any advances,lavender,brown,royalblue,All the players will advance,half-half-half,half-half-half,A-B-C,yes,A-B-C,20,7,7803,NA
A2AZMTZISHIX2C,English,any advances,darkorange,purple,brown,No player hit all of his shots,all-all-all,all-all-all,A-B-C,yes,A-B-C,21,1,7997,NA
A2AZMTZISHIX2C,English,any advances,seafoam,lightorange,royalblue,Player C will be disappointed,none-none-all,none-none-all,C,yes,C,22,1,4409,NA
A2AZMTZISHIX2C,English,any advances,yellow,wheat,brown,All of the players will advance,none-half-half,half-none-half,A-C,yes,A-C,23,1,6063,NA
A2AZMTZISHIX2C,English,any advances,tan,lavender,seafoam,None of the players will advance,none-none-all,none-none-all,C,yes,C,28,1,4458,NA
A2AZMTZISHIX2C,English,any advances,wheat,darkorange,brown,Every player hit some of his shots,half-all-all,all-all-half,A-B-C,no,A-B-C,1,6,19225,NA
A2AZMTZISHIX2C,English,any advances,lavender,grey,yellow,No player hit none of his shots,all-all-all,all-all-all,A-B-C,yes,A-B-C,0,7,11852,NA
A2AZMTZISHIX2C,English,any advances,lavender,seafoam,lightblue,At least one player will advance,none-none-none,none-none-none,none,yes,none,3,1,5130,NA
A2AZMTZISHIX2C,English,any advances,seafoam,tan,brown,Three players will advance,none-none-none,none-none-none,none,yes,none,2,1,6931,NA
A2AZMTZISHIX2C,English,any advances,purple,yellow,brown,Two players will advance,none-half-half,half-none-half,A-C,yes,A-C,5,7,8035,NA
A2AZMTZISHIX2C,English,any advances,seafoam,brown,purple,Player B will be pleased,all-all-all,all-all-all,A-B-C,yes,A-B-C,4,6,10632,NA
A2AZMTZISHIX2C,English,any advances,yellow,darkorange,royalblue,Most of the players will advance,none-all-all,all-all-none,A-B,yes,A-B,7,7,6604,NA
A2AZMTZISHIX2C,English,any advances,lightblue,tan,wheat,Exactly one player hit none of his shots,none-half-all,all-half-none,A-B,yes,A-B,6,7,8604,NA
A2AZMTZISHIX2C,English,any advances,royalblue,darkorange,lightorange,Player A will be pleased,none-none-none,none-none-none,none,yes,none,9,1,4200,NA
A2AZMTZISHIX2C,English,any advances,royalblue,lavender,tan,Player B will advance,none-none-none,none-none-none,none,yes,none,8,1,4415,NA
A2AZMTZISHIX2C,English,any advances,purple,seafoam,pink,One player will advance,half-half-all,all-half-half,A-B-C,yes,A-B-C,11,2,10327,NA
A2AZMTZISHIX2C,English,any advances,brown,lightorange,lightblue,No player hit some of his shots,none-none-none,none-none-none,none,yes,none,10,2,5862,NA
A2AZMTZISHIX2C,English,any advances,pink,brown,lavender,Every player hit all of his shots,none-all-all,all-all-none,A-B,yes,A-B,13,1,7214,NA
A2AZMTZISHIX2C,English,any advances,lavender,pink,brown,Player B will be disappointed,half-half-half,half-half-half,A-B-C,yes,A-B-C,12,3,8460,NA
A2AZMTZISHIX2C,English,any advances,yellow,darkorange,seafoam,Every player hit none of his shots,none-half-all,all-none-half,A-C,yes,A-C,15,1,8384,NA
A2AZMTZISHIX2C,English,any advances,midnight,pink,grey,Player C will advance,none-all-all,all-none-all,A-C,yes,A-C,14,6,5970,NA
A2AZMTZISHIX2C,English,any advances,lightorange,lightblue,yellow,Player A will advance,none-none-half,half-none-none,A,yes,A,17,7,5286,NA
A2AZMTZISHIX2C,English,any advances,tan,grey,darkorange,Exactly one player hit some of his shots,all-all-all,all-all-all,A-B-C,yes,A-B-C,16,1,8095,NA
A2AZMTZISHIX2C,English,any advances,pink,lightorange,wheat,Player C will be pleased,all-all-all,all-all-all,A-B-C,yes,A-B-C,19,6,6796,NA
A2AZMTZISHIX2C,English,any advances,grey,wheat,purple,Player A will be disappointed,none-none-all,none-none-all,C,yes,C,18,6,5537,NA
A2AZMTZISHIX2C,English,any advances,brown,darkorange,lightorange,Player A was the star player of the round,most-none-all,most-none-all,A-C,no,A-C,-1,1,13058,yes
