workerid,Answer.language,tournamentCondition,player1color,player2color,player3color,sentence,condition,conditionOrder,trialnum,response,rt,trainingCorrect
A29VH6K2QFGVZW,vietnamese,all advances,wheat,pink,lightorange,Player A made shots,half-half-half,half-half-half,24,7,2750,NA
A29VH6K2QFGVZW,vietnamese,all advances,lightblue,darkorange,yellow,Player B made shots,half-half-half,half-half-half,25,7,5721,NA
A29VH6K2QFGVZW,vietnamese,all advances,yellow,tan,lightorange,Two players will advance,none-all-all,all-all-none,26,7,1671,NA
A29VH6K2QFGVZW,vietnamese,all advances,yellow,darkorange,grey,Three players will advance,none-none-half,half-none-none,27,1,2560,NA
A29VH6K2QFGVZW,vietnamese,all advances,lightorange,tan,lightblue,All of the players will advance,none-half-all,half-none-all,20,1,2277,NA
A29VH6K2QFGVZW,vietnamese,all advances,lavender,purple,yellow,Player A will be pleased,none-none-all,all-none-none,21,7,2278,NA
A29VH6K2QFGVZW,vietnamese,all advances,lavender,darkorange,yellow,Most of the players will advance,none-half-all,all-half-none,22,1,6358,NA
A29VH6K2QFGVZW,vietnamese,all advances,lavender,brown,lightblue,Exactly one player hit none of his shots,half-all-all,all-all-half,23,1,3174,NA
A29VH6K2QFGVZW,vietnamese,all advances,pink,seafoam,wheat,Player C will be pleased,none-none-half,half-none-none,28,1,1856,NA
A29VH6K2QFGVZW,vietnamese,all advances,grey,yellow,lightblue,No player hit none of his shots,all-all-all,all-all-all,1,7,6351,NA
A29VH6K2QFGVZW,vietnamese,all advances,lightorange,royalblue,lavender,Player B will be disappointed,all-all-all,all-all-all,0,1,9328,NA
A29VH6K2QFGVZW,vietnamese,all advances,seafoam,royalblue,purple,At least one player will advance,half-half-all,all-half-half,3,7,4484,NA
A29VH6K2QFGVZW,vietnamese,all advances,grey,midnight,lavender,Exactly one player hit all of his shots,none-none-all,all-none-none,2,7,3000,NA
A29VH6K2QFGVZW,vietnamese,all advances,lavender,yellow,royalblue,Player C will be disappointed,none-all-all,all-none-all,5,1,4548,NA
A29VH6K2QFGVZW,vietnamese,all advances,pink,darkorange,yellow,Every player hit some of his shots,none-none-none,none-none-none,4,1,3450,NA
A29VH6K2QFGVZW,vietnamese,all advances,lavender,lightorange,seafoam,No player hit all of his shots,none-none-half,none-half-none,7,1,3057,NA
A29VH6K2QFGVZW,vietnamese,all advances,lightorange,tan,pink,One player will advance,none-none-none,none-none-none,6,1,3071,NA
A29VH6K2QFGVZW,vietnamese,all advances,royalblue,brown,darkorange,None of the players will advance,all-all-all,all-all-all,9,1,1954,NA
A29VH6K2QFGVZW,vietnamese,all advances,tan,lightorange,lightblue,Exactly one player hit some of his shots,half-half-half,half-half-half,8,1,8522,NA
A29VH6K2QFGVZW,vietnamese,all advances,tan,royalblue,pink,Player A will advance,none-half-all,none-half-all,11,1,2872,NA
A29VH6K2QFGVZW,vietnamese,all advances,brown,lightblue,lavender,Player B will advance,none-half-half,half-half-none,10,1,12944,NA
A29VH6K2QFGVZW,vietnamese,all advances,grey,pink,darkorange,All the players will advance,none-none-none,none-none-none,13,1,1853,NA
A29VH6K2QFGVZW,vietnamese,all advances,pink,seafoam,lightblue,Player A will be disappointed,all-all-all,all-all-all,12,1,2557,NA
A29VH6K2QFGVZW,vietnamese,all advances,grey,darkorange,seafoam,Player C will advance,none-none-half,half-none-none,15,1,2005,NA
A29VH6K2QFGVZW,vietnamese,all advances,yellow,lavender,royalblue,No player hit some of his shots,none-half-half,half-half-none,14,1,2999,NA
A29VH6K2QFGVZW,vietnamese,all advances,yellow,seafoam,darkorange,Every player hit all of his shots,none-none-half,none-none-half,17,1,2127,NA
A29VH6K2QFGVZW,vietnamese,all advances,darkorange,midnight,brown,Player B will be pleased,all-all-all,all-all-all,16,7,3324,NA
A29VH6K2QFGVZW,vietnamese,all advances,lightorange,lavender,lightblue,Player C made shots,half-half-all,half-half-all,19,7,3873,NA
A29VH6K2QFGVZW,vietnamese,all advances,seafoam,lightorange,purple,Every player hit none of his shots,none-half-half,none-half-half,18,1,1969,NA
A29VH6K2QFGVZW,vietnamese,all advances,brown,purple,lightorange,Player A was the star player of the round,most-none-all,most-none-all,-1,1,17401,no
A29VH6K2QFGVZW,vietnamese,all advances,pink,royalblue,lightblue,Player C messed up,all-all-none,all-all-none,-3,7,9936,yes
A29VH6K2QFGVZW,vietnamese,all advances,lavender,tan,grey,Player B will advance to the next round,all-few-none,all-few-none,-2,1,9287,yes
A228M4KOCN6I95,English,any advances,grey,purple,tan,Player B made shots,half-half-half,half-half-half,24,7,4784,NA
A228M4KOCN6I95,English,any advances,midnight,lightblue,purple,Exactly one player hit all of his shots,half-half-all,half-all-half,25,7,5784,NA
A228M4KOCN6I95,English,any advances,purple,yellow,tan,Player A made shots,half-half-all,all-half-half,26,7,3600,NA
A228M4KOCN6I95,English,any advances,lavender,pink,grey,None of the players will advance,none-half-half,half-none-half,27,1,5985,NA
A228M4KOCN6I95,English,any advances,seafoam,lavender,midnight,Player C will advance,none-half-half,half-half-none,20,1,6480,NA
A228M4KOCN6I95,English,any advances,pink,tan,seafoam,Player A will be disappointed,none-none-half,half-none-none,21,1,5057,NA
A228M4KOCN6I95,English,any advances,midnight,grey,darkorange,Every player hit some of his shots,half-half-half,half-half-half,22,7,5394,NA
A228M4KOCN6I95,English,any advances,midnight,brown,lightblue,Every player hit all of his shots,half-all-all,all-half-all,23,1,6009,NA
A228M4KOCN6I95,English,any advances,midnight,brown,wheat,One player will advance,none-none-half,none-none-half,28,7,5433,NA
A228M4KOCN6I95,English,any advances,brown,yellow,pink,Player C made shots,all-all-all,all-all-all,1,7,6703,NA
A228M4KOCN6I95,English,any advances,pink,lavender,royalblue,All of the players will advance,half-half-all,half-half-all,0,1,10020,NA
A228M4KOCN6I95,English,any advances,midnight,brown,lavender,Most of the players will advance,half-half-all,half-all-half,3,7,10533,NA
A228M4KOCN6I95,English,any advances,royalblue,pink,lightorange,No player hit some of his shots,none-none-half,none-half-none,2,1,6619,NA
A228M4KOCN6I95,English,any advances,darkorange,royalblue,brown,No player hit none of his shots,half-half-all,all-half-half,5,7,17160,NA
A228M4KOCN6I95,English,any advances,darkorange,seafoam,tan,Exactly one player hit some of his shots,none-half-all,all-half-none,4,1,8768,NA
A228M4KOCN6I95,English,any advances,lightblue,darkorange,lightorange,Player B will be pleased,none-half-half,none-half-half,7,7,11304,NA
A228M4KOCN6I95,English,any advances,brown,purple,tan,Three players will advance,none-none-all,all-none-none,6,1,10479,NA
A228M4KOCN6I95,English,any advances,grey,darkorange,midnight,Player B will be disappointed,none-none-half,none-none-half,9,4,12472,NA
A228M4KOCN6I95,English,any advances,midnight,lavender,purple,Every player hit none of his shots,none-none-half,none-half-none,8,1,10752,NA
A228M4KOCN6I95,English,any advances,darkorange,purple,brown,Two players will advance,half-half-half,half-half-half,11,1,7099,NA
A228M4KOCN6I95,English,any advances,midnight,seafoam,yellow,Exactly one player hit none of his shots,half-all-all,all-half-all,10,1,14569,NA
A228M4KOCN6I95,English,any advances,grey,wheat,lightorange,At least one player will advance,none-half-half,half-none-half,13,7,10416,NA
A228M4KOCN6I95,English,any advances,brown,grey,lavender,Player C will be pleased,none-none-all,none-all-none,12,1,5682,NA
A228M4KOCN6I95,English,any advances,wheat,purple,lightblue,Player A will be pleased,none-half-half,half-none-half,15,7,6128,NA
A228M4KOCN6I95,English,any advances,lavender,lightorange,tan,No player hit all of his shots,none-none-all,none-all-none,14,1,10944,NA
A228M4KOCN6I95,English,any advances,midnight,wheat,seafoam,Player A will advance,none-all-all,none-all-all,17,1,6472,NA
A228M4KOCN6I95,English,any advances,yellow,lightblue,brown,Player C will be disappointed,half-half-all,half-half-all,16,1,4840,NA
A228M4KOCN6I95,English,any advances,lavender,yellow,brown,All the players will advance,half-half-all,all-half-half,19,7,13176,NA
A228M4KOCN6I95,English,any advances,pink,lavender,midnight,Player B will advance,none-none-none,none-none-none,18,1,13873,NA
A228M4KOCN6I95,English,any advances,grey,midnight,tan,Player A was the star player of the round,most-none-all,most-none-all,-1,1,12886,yes
A228M4KOCN6I95,English,any advances,wheat,seafoam,lightorange,Player C messed up,all-all-none,all-all-none,-3,7,13800,yes
A228M4KOCN6I95,English,any advances,royalblue,lightblue,grey,Player B will advance to the next round,all-few-none,all-few-none,-2,7,32077,no
A22GSIGYU6AR9J,English,all advances,grey,yellow,seafoam,Player A will advance,none-none-half,half-none-none,24,1,2054,NA
A22GSIGYU6AR9J,English,all advances,purple,lavender,brown,Player A made shots,all-all-all,all-all-all,25,7,3164,NA
A22GSIGYU6AR9J,English,all advances,lavender,midnight,darkorange,Most of the players will advance,half-all-all,half-all-all,26,7,2285,NA
A22GSIGYU6AR9J,English,all advances,brown,pink,grey,Exactly one player hit none of his shots,none-half-all,all-half-none,27,7,3013,NA
A22GSIGYU6AR9J,English,all advances,lightorange,pink,lightblue,No player hit all of his shots,none-all-all,all-none-all,20,1,3510,NA
A22GSIGYU6AR9J,English,all advances,lightorange,brown,midnight,One player will advance,none-half-half,half-none-half,21,1,2190,NA
A22GSIGYU6AR9J,English,all advances,royalblue,tan,purple,Exactly one player hit some of his shots,half-all-all,all-all-half,22,1,3111,NA
A22GSIGYU6AR9J,English,all advances,wheat,midnight,lightblue,At least one player will advance,none-half-half,half-none-half,23,1,3062,NA
A22GSIGYU6AR9J,English,all advances,darkorange,brown,midnight,Player B made shots,half-all-all,all-half-all,28,7,2366,NA
A22GSIGYU6AR9J,English,all advances,wheat,lightblue,royalblue,No player hit none of his shots,half-half-half,half-half-half,1,7,6399,NA
A22GSIGYU6AR9J,English,all advances,seafoam,tan,grey,All the players will advance,none-half-all,half-none-all,0,1,4315,NA
A22GSIGYU6AR9J,English,all advances,lavender,brown,seafoam,None of the players will advance,none-half-all,half-all-none,3,1,2941,NA
A22GSIGYU6AR9J,English,all advances,royalblue,yellow,wheat,Player C will be pleased,half-half-all,half-all-half,2,1,5276,NA
A22GSIGYU6AR9J,English,all advances,purple,lavender,darkorange,All of the players will advance,none-half-half,half-half-none,5,1,2573,NA
A22GSIGYU6AR9J,English,all advances,darkorange,purple,seafoam,Player A will be disappointed,none-half-all,half-none-all,4,7,4822,NA
A22GSIGYU6AR9J,English,all advances,wheat,lightorange,lightblue,Every player hit some of his shots,all-all-all,all-all-all,7,6,4366,NA
A22GSIGYU6AR9J,English,all advances,brown,yellow,royalblue,Player B will be disappointed,all-all-all,all-all-all,6,1,2894,NA
A22GSIGYU6AR9J,English,all advances,wheat,yellow,royalblue,Player A will be pleased,half-half-half,half-half-half,9,1,2398,NA
A22GSIGYU6AR9J,English,all advances,pink,tan,grey,Player C made shots,none-half-half,none-half-half,8,4,3421,NA
A22GSIGYU6AR9J,English,all advances,purple,midnight,lightblue,Player C will be disappointed,all-all-all,all-all-all,11,1,3111,NA
A22GSIGYU6AR9J,English,all advances,purple,lavender,seafoam,Player B will advance,half-half-half,half-half-half,10,1,3823,NA
A22GSIGYU6AR9J,English,all advances,tan,wheat,lightorange,Every player hit all of his shots,none-none-half,none-none-half,13,1,2504,NA
A22GSIGYU6AR9J,English,all advances,pink,seafoam,lightblue,Exactly one player hit all of his shots,none-none-half,none-half-none,12,1,3307,NA
A22GSIGYU6AR9J,English,all advances,tan,lightblue,pink,Player C will advance,none-none-half,half-none-none,15,1,2333,NA
A22GSIGYU6AR9J,English,all advances,grey,darkorange,seafoam,Player B will be pleased,half-all-all,all-half-all,14,1,2446,NA
A22GSIGYU6AR9J,English,all advances,grey,lavender,darkorange,Three players will advance,none-half-all,none-all-half,17,1,1886,NA
A22GSIGYU6AR9J,English,all advances,royalblue,lavender,grey,Every player hit none of his shots,half-half-half,half-half-half,16,1,2927,NA
A22GSIGYU6AR9J,English,all advances,brown,seafoam,royalblue,Two players will advance,none-half-all,half-all-none,19,1,2189,NA
A22GSIGYU6AR9J,English,all advances,seafoam,lightorange,lavender,No player hit some of his shots,none-none-half,half-none-none,18,1,2512,NA
A22GSIGYU6AR9J,English,all advances,lightblue,yellow,darkorange,Player A was the star player of the round,most-none-all,most-none-all,-1,1,6373,yes
A22GSIGYU6AR9J,English,all advances,brown,lightorange,purple,Player C messed up,all-all-none,all-all-none,-3,7,26683,no
A22GSIGYU6AR9J,English,all advances,royalblue,seafoam,darkorange,Player B will advance to the next round,all-few-none,all-few-none,-2,1,9612,yes
A2QBY47K90M99E,English,any advances,lightblue,midnight,darkorange,All the players will advance,none-none-none,none-none-none,24,1,4008,NA
A2QBY47K90M99E,English,any advances,tan,lightorange,pink,At least one player will advance,all-all-all,all-all-all,25,7,2047,NA
A2QBY47K90M99E,English,any advances,royalblue,wheat,seafoam,Every player hit some of his shots,none-half-all,none-half-all,26,1,4025,NA
A2QBY47K90M99E,English,any advances,yellow,royalblue,grey,None of the players will advance,none-none-all,all-none-none,27,1,2571,NA
A2QBY47K90M99E,English,any advances,royalblue,purple,wheat,Exactly one player hit none of his shots,half-half-half,half-half-half,20,1,3554,NA
A2QBY47K90M99E,English,any advances,midnight,lavender,royalblue,Three players will advance,none-half-half,half-none-half,21,1,2828,NA
A2QBY47K90M99E,English,any advances,midnight,royalblue,wheat,Player C will be pleased,none-none-all,none-none-all,22,7,3759,NA
A2QBY47K90M99E,English,any advances,seafoam,darkorange,tan,Player C will be disappointed,all-all-all,all-all-all,23,1,2447,NA
A2QBY47K90M99E,English,any advances,brown,darkorange,grey,Player A will advance,half-half-all,half-half-all,28,3,6570,NA
A2QBY47K90M99E,English,any advances,royalblue,wheat,brown,No player hit some of his shots,half-half-all,all-half-half,1,1,11610,NA
A2QBY47K90M99E,English,any advances,lavender,pink,purple,Player B will advance,none-none-none,none-none-none,0,1,4781,NA
A2QBY47K90M99E,English,any advances,yellow,brown,purple,All of the players will advance,none-all-all,all-all-none,3,1,3375,NA
A2QBY47K90M99E,English,any advances,lightblue,midnight,darkorange,Player C will advance,all-all-all,all-all-all,2,7,3042,NA
A2QBY47K90M99E,English,any advances,midnight,lavender,royalblue,Player B will be disappointed,none-none-none,none-none-none,5,7,2673,NA
A2QBY47K90M99E,English,any advances,lavender,lightblue,darkorange,No player hit all of his shots,none-none-half,none-half-none,4,7,5497,NA
A2QBY47K90M99E,English,any advances,brown,royalblue,wheat,Player B will be pleased,none-half-all,none-all-half,7,7,3234,NA
A2QBY47K90M99E,English,any advances,midnight,darkorange,pink,Player A will be pleased,none-none-none,none-none-none,6,1,3391,NA
A2QBY47K90M99E,English,any advances,brown,grey,wheat,Player C made shots,none-half-half,half-none-half,9,7,2705,NA
A2QBY47K90M99E,English,any advances,brown,purple,lightorange,Two players will advance,none-none-half,half-none-none,8,7,7123,NA
A2QBY47K90M99E,English,any advances,lightblue,lightorange,yellow,Every player hit none of his shots,half-all-all,all-half-all,11,1,6038,NA
A2QBY47K90M99E,English,any advances,lightblue,lightorange,purple,One player will advance,half-all-all,all-all-half,10,1,2459,NA
A2QBY47K90M99E,English,any advances,seafoam,tan,purple,Every player hit all of his shots,none-none-half,none-none-half,13,1,3187,NA
A2QBY47K90M99E,English,any advances,grey,midnight,brown,Player B made shots,half-half-all,half-all-half,12,7,2950,NA
A2QBY47K90M99E,English,any advances,lavender,royalblue,lightorange,Exactly one player hit some of his shots,none-half-half,none-half-half,15,1,5048,NA
A2QBY47K90M99E,English,any advances,grey,yellow,darkorange,No player hit none of his shots,none-half-half,half-half-none,14,1,5455,NA
A2QBY47K90M99E,English,any advances,midnight,wheat,lightblue,Player A made shots,half-half-all,half-half-all,17,7,3033,NA
A2QBY47K90M99E,English,any advances,grey,royalblue,pink,Most of the players will advance,half-all-all,all-all-half,16,5,4969,NA
A2QBY47K90M99E,English,any advances,midnight,grey,tan,Player A will be disappointed,none-half-all,none-all-half,19,7,3824,NA
A2QBY47K90M99E,English,any advances,tan,yellow,darkorange,Exactly one player hit all of his shots,none-none-none,none-none-none,18,1,3085,NA
A2QBY47K90M99E,English,any advances,lightblue,tan,seafoam,Player A was the star player of the round,most-none-all,most-none-all,-1,1,5909,yes
A2QBY47K90M99E,English,any advances,purple,midnight,wheat,Player C messed up,all-all-none,all-all-none,-3,7,8656,yes
A2QBY47K90M99E,English,any advances,lightblue,pink,tan,Player B will advance to the next round,all-few-none,all-few-none,-2,7,11887,no
A5KFCCLP45IPZ,english,any advances,seafoam,royalblue,purple,Every player hit all of his shots,half-half-all,half-all-half,24,1,2742,NA
A5KFCCLP45IPZ,english,any advances,royalblue,wheat,grey,Two players will advance,half-half-half,half-half-half,25,4,5661,NA
A5KFCCLP45IPZ,english,any advances,lightblue,tan,lightorange,Player B will advance,none-none-half,half-none-none,26,1,4790,NA
A5KFCCLP45IPZ,english,any advances,tan,pink,purple,Player A will be pleased,half-all-all,all-half-all,27,7,1734,NA
A5KFCCLP45IPZ,english,any advances,grey,royalblue,yellow,No player hit none of his shots,none-none-none,none-none-none,20,1,12486,NA
A5KFCCLP45IPZ,english,any advances,yellow,wheat,grey,At least one player will advance,none-all-all,all-none-all,21,7,3598,NA
A5KFCCLP45IPZ,english,any advances,darkorange,lavender,lightorange,Player C made shots,none-half-all,none-all-half,22,7,2574,NA
A5KFCCLP45IPZ,english,any advances,purple,grey,darkorange,Player A made shots,none-all-all,all-none-all,23,7,2661,NA
A5KFCCLP45IPZ,english,any advances,brown,pink,lavender,All of the players will advance,half-half-half,half-half-half,28,7,2222,NA
A5KFCCLP45IPZ,english,any advances,lightblue,lavender,midnight,None of the players will advance,none-half-all,none-all-half,1,1,8797,NA
A5KFCCLP45IPZ,english,any advances,yellow,darkorange,seafoam,Exactly one player hit some of his shots,half-all-all,all-all-half,0,1,18324,NA
A5KFCCLP45IPZ,english,any advances,lightorange,tan,lightblue,All the players will advance,half-half-half,half-half-half,3,7,3214,NA
A5KFCCLP45IPZ,english,any advances,royalblue,pink,darkorange,Player B will be disappointed,none-half-all,half-all-none,2,1,5629,NA
A5KFCCLP45IPZ,english,any advances,grey,yellow,pink,Every player hit none of his shots,none-none-half,none-half-none,5,1,22623,NA
A5KFCCLP45IPZ,english,any advances,royalblue,pink,wheat,Player B will be pleased,none-half-all,half-all-none,4,7,3700,NA
A5KFCCLP45IPZ,english,any advances,midnight,yellow,darkorange,Exactly one player hit all of his shots,none-all-all,all-all-none,7,1,5789,NA
A5KFCCLP45IPZ,english,any advances,wheat,tan,pink,Player C will be pleased,none-none-none,none-none-none,6,1,3406,NA
A5KFCCLP45IPZ,english,any advances,lightorange,grey,darkorange,No player hit all of his shots,half-half-half,half-half-half,9,7,3646,NA
A5KFCCLP45IPZ,english,any advances,grey,lavender,pink,No player hit some of his shots,none-half-half,half-half-none,8,1,12334,NA
A5KFCCLP45IPZ,english,any advances,grey,royalblue,brown,Most of the players will advance,none-half-all,all-half-none,11,7,2670,NA
A5KFCCLP45IPZ,english,any advances,lightblue,darkorange,yellow,One player will advance,none-none-half,half-none-none,10,7,3277,NA
A5KFCCLP45IPZ,english,any advances,wheat,pink,lightblue,Exactly one player hit none of his shots,none-none-none,none-none-none,13,1,3653,NA
A5KFCCLP45IPZ,english,any advances,royalblue,yellow,purple,Every player hit some of his shots,none-none-half,none-half-none,12,1,8117,NA
A5KFCCLP45IPZ,english,any advances,lavender,yellow,brown,Player C will be disappointed,half-all-all,all-all-half,15,4,5775,NA
A5KFCCLP45IPZ,english,any advances,yellow,midnight,pink,Three players will advance,half-all-all,half-all-all,14,7,3629,NA
A5KFCCLP45IPZ,english,any advances,pink,seafoam,midnight,Player A will advance,none-none-half,half-none-none,17,7,2710,NA
A5KFCCLP45IPZ,english,any advances,yellow,wheat,lightblue,Player B made shots,all-all-all,all-all-all,16,7,2581,NA
A5KFCCLP45IPZ,english,any advances,tan,midnight,darkorange,Player C will advance,half-all-all,all-half-all,19,7,2670,NA
A5KFCCLP45IPZ,english,any advances,purple,yellow,wheat,Player A will be disappointed,none-none-half,none-half-none,18,7,3213,NA
A5KFCCLP45IPZ,english,any advances,yellow,tan,seafoam,Player A was the star player of the round,most-none-all,most-none-all,-1,1,8502,yes
A5KFCCLP45IPZ,english,any advances,tan,yellow,lightblue,Player C messed up,all-all-none,all-all-none,-3,7,12644,yes
A5KFCCLP45IPZ,english,any advances,grey,tan,brown,Player B will advance to the next round,all-few-none,all-few-none,-2,7,8411,yes
A2RYRS301XIZZD,English,any advances,purple,lightblue,yellow,One player will advance,none-all-all,all-all-none,24,1,3225,NA
A2RYRS301XIZZD,English,any advances,brown,seafoam,lightblue,Two players will advance,half-all-all,half-all-all,25,1,3142,NA
A2RYRS301XIZZD,English,any advances,lightblue,purple,tan,Player B will be disappointed,none-half-half,half-none-half,26,7,3697,NA
A2RYRS301XIZZD,English,any advances,lightblue,seafoam,wheat,Player A will be pleased,none-half-all,none-half-all,27,1,3596,NA
A2RYRS301XIZZD,English,any advances,yellow,lavender,royalblue,Player C made shots,half-all-all,all-half-all,20,7,3063,NA
A2RYRS301XIZZD,English,any advances,lavender,seafoam,wheat,At least one player will advance,none-half-half,half-half-none,21,7,3519,NA
A2RYRS301XIZZD,English,any advances,lightorange,wheat,grey,All of the players will advance,none-none-none,none-none-none,22,1,2782,NA
A2RYRS301XIZZD,English,any advances,grey,purple,pink,Three players will advance,half-all-all,all-all-half,23,7,3833,NA
A2RYRS301XIZZD,English,any advances,pink,lavender,grey,Player C will advance,none-half-half,half-none-half,28,7,5488,NA
A2RYRS301XIZZD,English,any advances,purple,lightblue,darkorange,Player A made shots,none-none-none,none-none-none,1,1,5834,NA
A2RYRS301XIZZD,English,any advances,pink,brown,seafoam,All the players will advance,none-half-all,none-all-half,0,1,6410,NA
A2RYRS301XIZZD,English,any advances,seafoam,pink,tan,No player hit some of his shots,all-all-all,all-all-all,3,7,6607,NA
A2RYRS301XIZZD,English,any advances,lavender,wheat,yellow,No player hit none of his shots,none-none-all,all-none-none,2,1,5195,NA
A2RYRS301XIZZD,English,any advances,grey,yellow,brown,No player hit all of his shots,all-all-all,all-all-all,5,1,5118,NA
A2RYRS301XIZZD,English,any advances,lavender,wheat,brown,Player A will advance,half-half-all,half-half-all,4,7,3711,NA
A2RYRS301XIZZD,English,any advances,brown,lavender,lightorange,None of the players will advance,all-all-all,all-all-all,7,1,5458,NA
A2RYRS301XIZZD,English,any advances,grey,brown,darkorange,Player C will be pleased,none-all-all,none-all-all,6,7,5219,NA
A2RYRS301XIZZD,English,any advances,grey,royalblue,wheat,Exactly one player hit none of his shots,none-half-all,half-none-all,9,7,8112,NA
A2RYRS301XIZZD,English,any advances,yellow,lavender,lightorange,Every player hit none of his shots,none-none-all,none-none-all,8,1,6141,NA
A2RYRS301XIZZD,English,any advances,purple,lightblue,lightorange,Exactly one player hit all of his shots,none-half-all,all-half-none,11,7,6626,NA
A2RYRS301XIZZD,English,any advances,wheat,lightorange,darkorange,Every player hit some of his shots,half-half-half,half-half-half,10,7,8826,NA
A2RYRS301XIZZD,English,any advances,brown,purple,wheat,Player B will be pleased,none-all-all,all-none-all,13,1,4960,NA
A2RYRS301XIZZD,English,any advances,darkorange,brown,royalblue,Player B made shots,none-half-all,half-all-none,12,7,3314,NA
A2RYRS301XIZZD,English,any advances,midnight,purple,tan,Player C will be disappointed,half-half-all,half-half-all,15,1,2989,NA
A2RYRS301XIZZD,English,any advances,darkorange,seafoam,purple,Most of the players will advance,none-half-half,none-half-half,14,7,6168,NA
A2RYRS301XIZZD,English,any advances,tan,midnight,purple,Player B will advance,none-none-half,none-none-half,17,1,3576,NA
A2RYRS301XIZZD,English,any advances,brown,wheat,purple,Exactly one player hit some of his shots,none-half-all,none-half-all,16,3,29141,NA
A2RYRS301XIZZD,English,any advances,brown,lightblue,purple,Every player hit all of his shots,half-half-all,half-half-all,19,1,3807,NA
A2RYRS301XIZZD,English,any advances,grey,midnight,yellow,Player A will be disappointed,none-none-none,none-none-none,18,7,3276,NA
A2RYRS301XIZZD,English,any advances,tan,lavender,midnight,Player A was the star player of the round,most-none-all,most-none-all,-1,1,8692,yes
A2RYRS301XIZZD,English,any advances,pink,purple,tan,Player C messed up,all-all-none,all-all-none,-3,7,12036,yes
A2RYRS301XIZZD,English,any advances,pink,tan,midnight,Player B will advance to the next round,all-few-none,all-few-none,-2,6,7829,yes
A15C96Z8TZEV6D,English,all advances,pink,seafoam,wheat,At least one player will advance,none-half-all,half-all-none,24,6,3231,NA
A15C96Z8TZEV6D,English,all advances,lightorange,wheat,yellow,Exactly one player hit none of his shots,none-none-half,half-none-none,25,1,4575,NA
A15C96Z8TZEV6D,English,all advances,seafoam,darkorange,royalblue,No player hit all of his shots,none-all-all,all-none-all,26,1,5004,NA
A15C96Z8TZEV6D,English,all advances,brown,purple,seafoam,Player B made shots,none-none-all,none-all-none,27,6,3243,NA
A15C96Z8TZEV6D,English,all advances,seafoam,lightorange,brown,No player hit none of his shots,none-half-half,half-none-half,20,1,4145,NA
A15C96Z8TZEV6D,English,all advances,midnight,lightorange,darkorange,Two players will advance,none-half-all,all-half-none,21,1,4381,NA
A15C96Z8TZEV6D,English,all advances,lightblue,pink,yellow,Every player hit none of his shots,half-half-half,half-half-half,22,1,3835,NA
A15C96Z8TZEV6D,English,all advances,pink,midnight,tan,Exactly one player hit all of his shots,none-half-half,half-none-half,23,1,3684,NA
A15C96Z8TZEV6D,English,all advances,grey,pink,lightblue,Player C will advance,none-none-all,none-all-none,28,1,2892,NA
A15C96Z8TZEV6D,English,all advances,darkorange,grey,purple,Player C will be disappointed,none-none-all,none-all-none,1,7,4391,NA
A15C96Z8TZEV6D,English,all advances,darkorange,lightblue,tan,Player B will be pleased,all-all-all,all-all-all,0,7,3750,NA
A15C96Z8TZEV6D,English,all advances,purple,lightblue,midnight,One player will advance,none-half-all,half-none-all,3,7,3588,NA
A15C96Z8TZEV6D,English,all advances,yellow,purple,midnight,All of the players will advance,half-half-half,half-half-half,2,1,4146,NA
A15C96Z8TZEV6D,English,all advances,brown,seafoam,pink,Three players will advance,none-none-none,none-none-none,5,1,3642,NA
A15C96Z8TZEV6D,English,all advances,wheat,lightorange,yellow,No player hit some of his shots,none-half-all,none-half-all,4,2,16514,NA
A15C96Z8TZEV6D,English,all advances,tan,purple,midnight,Exactly one player hit some of his shots,none-half-half,none-half-half,7,1,4871,NA
A15C96Z8TZEV6D,English,all advances,darkorange,lightblue,lavender,Every player hit all of his shots,none-none-all,none-all-none,6,1,2758,NA
A15C96Z8TZEV6D,English,all advances,brown,seafoam,lightblue,Player A will be disappointed,none-half-all,half-all-none,9,6,5170,NA
A15C96Z8TZEV6D,English,all advances,wheat,royalblue,purple,Every player hit some of his shots,none-none-half,half-none-none,8,1,5158,NA
A15C96Z8TZEV6D,English,all advances,lavender,darkorange,lightblue,None of the players will advance,none-none-half,half-none-none,11,7,4278,NA
A15C96Z8TZEV6D,English,all advances,grey,royalblue,yellow,Player B will advance,none-none-half,none-none-half,10,1,3302,NA
A15C96Z8TZEV6D,English,all advances,yellow,grey,lavender,All the players will advance,none-half-half,none-half-half,13,1,2817,NA
A15C96Z8TZEV6D,English,all advances,royalblue,lightblue,midnight,Player A made shots,none-none-all,none-all-none,12,1,3595,NA
A15C96Z8TZEV6D,English,all advances,lightorange,darkorange,royalblue,Player B will be disappointed,none-none-half,none-half-none,15,6,4070,NA
A15C96Z8TZEV6D,English,all advances,seafoam,darkorange,lavender,Player A will advance,half-all-all,all-all-half,14,7,2251,NA
A15C96Z8TZEV6D,English,all advances,yellow,wheat,seafoam,Player A will be pleased,half-half-half,half-half-half,17,2,2805,NA
A15C96Z8TZEV6D,English,all advances,brown,lightorange,grey,Player C will be pleased,all-all-all,all-all-all,16,7,4282,NA
A15C96Z8TZEV6D,English,all advances,lavender,lightorange,brown,Player C made shots,half-half-all,all-half-half,19,7,3353,NA
A15C96Z8TZEV6D,English,all advances,tan,royalblue,midnight,Most of the players will advance,all-all-all,all-all-all,18,1,4320,NA
A15C96Z8TZEV6D,English,all advances,grey,seafoam,purple,Player A was the star player of the round,most-none-all,most-none-all,-1,1,15992,yes
A15C96Z8TZEV6D,English,all advances,brown,yellow,lavender,Player C messed up,all-all-none,all-all-none,-3,6,10273,yes
A15C96Z8TZEV6D,English,all advances,pink,midnight,grey,Player B will advance to the next round,all-few-none,all-few-none,-2,1,6492,yes
A3J6AXPUQQJY7D,English,any advances,brown,yellow,purple,No player hit all of his shots,none-none-none,none-none-none,24,3,11432,NA
A3J6AXPUQQJY7D,English,any advances,brown,lightorange,yellow,Two players will advance,none-none-half,half-none-none,25,1,3047,NA
A3J6AXPUQQJY7D,English,any advances,seafoam,lavender,grey,Player A will advance,all-all-all,all-all-all,26,3,6197,NA
A3J6AXPUQQJY7D,English,any advances,wheat,yellow,lightorange,No player hit none of his shots,none-none-all,none-none-all,27,1,8321,NA
A3J6AXPUQQJY7D,English,any advances,lightblue,purple,wheat,Player C will be disappointed,none-none-half,none-half-none,20,7,4203,NA
A3J6AXPUQQJY7D,English,any advances,lavender,purple,grey,Every player hit some of his shots,none-half-half,half-none-half,21,1,3528,NA
A3J6AXPUQQJY7D,English,any advances,pink,brown,seafoam,Three players will advance,half-half-all,half-half-all,22,6,3991,NA
A3J6AXPUQQJY7D,English,any advances,seafoam,royalblue,midnight,Every player hit all of his shots,none-none-none,none-none-none,23,1,3280,NA
A3J6AXPUQQJY7D,English,any advances,grey,darkorange,purple,No player hit some of his shots,all-all-all,all-all-all,28,1,4704,NA
A3J6AXPUQQJY7D,English,any advances,royalblue,seafoam,brown,Player C made shots,none-none-none,none-none-none,1,1,5389,NA
A3J6AXPUQQJY7D,English,any advances,pink,lavender,royalblue,Most of the players will advance,none-none-all,all-none-none,0,1,5293,NA
A3J6AXPUQQJY7D,English,any advances,lightblue,seafoam,lightorange,None of the players will advance,none-half-all,half-all-none,3,1,4154,NA
A3J6AXPUQQJY7D,English,any advances,midnight,lavender,wheat,Player A will be disappointed,none-none-half,none-none-half,2,6,5747,NA
A3J6AXPUQQJY7D,English,any advances,wheat,darkorange,lightorange,Player B made shots,none-none-half,half-none-none,5,1,2386,NA
A3J6AXPUQQJY7D,English,any advances,darkorange,wheat,tan,Player A will be pleased,none-half-all,none-half-all,4,1,4830,NA
A3J6AXPUQQJY7D,English,any advances,brown,midnight,seafoam,At least one player will advance,half-half-half,half-half-half,7,6,6026,NA
A3J6AXPUQQJY7D,English,any advances,royalblue,lavender,yellow,Player B will advance,none-none-all,none-all-none,6,7,3024,NA
A3J6AXPUQQJY7D,English,any advances,grey,lavender,lightorange,Every player hit none of his shots,none-all-all,all-all-none,9,1,7340,NA
A3J6AXPUQQJY7D,English,any advances,brown,lavender,royalblue,Player A made shots,half-half-all,half-half-all,8,6,3773,NA
A3J6AXPUQQJY7D,English,any advances,tan,lavender,darkorange,All of the players will advance,none-all-all,none-all-all,11,1,3167,NA
A3J6AXPUQQJY7D,English,any advances,midnight,lavender,tan,Player C will advance,half-half-all,half-all-half,10,6,3541,NA
A3J6AXPUQQJY7D,English,any advances,lightorange,seafoam,wheat,All the players will advance,all-all-all,all-all-all,13,7,2638,NA
A3J6AXPUQQJY7D,English,any advances,lightorange,lavender,pink,Exactly one player hit some of his shots,half-half-all,all-half-half,12,1,6743,NA
A3J6AXPUQQJY7D,English,any advances,yellow,lightblue,purple,Player B will be pleased,all-all-all,all-all-all,15,6,3861,NA
A3J6AXPUQQJY7D,English,any advances,wheat,darkorange,yellow,Player C will be pleased,all-all-all,all-all-all,14,6,3436,NA
A3J6AXPUQQJY7D,English,any advances,darkorange,midnight,yellow,Exactly one player hit none of his shots,half-half-all,all-half-half,17,1,5613,NA
A3J6AXPUQQJY7D,English,any advances,royalblue,wheat,lightblue,Player B will be disappointed,half-all-all,all-all-half,16,1,2821,NA
A3J6AXPUQQJY7D,English,any advances,purple,brown,wheat,Exactly one player hit all of his shots,none-none-all,none-none-all,19,7,4053,NA
A3J6AXPUQQJY7D,English,any advances,seafoam,lightblue,tan,One player will advance,none-half-all,none-all-half,18,2,6835,NA
A3J6AXPUQQJY7D,English,any advances,lightorange,purple,royalblue,Player A was the star player of the round,most-none-all,most-none-all,-1,1,9489,yes
A3J6AXPUQQJY7D,English,any advances,wheat,darkorange,yellow,Player C messed up,all-all-none,all-all-none,-3,6,13922,yes
A3J6AXPUQQJY7D,English,any advances,grey,brown,royalblue,Player B will advance to the next round,all-few-none,all-few-none,-2,6,10439,yes
A3J9CFTGD26F0P,English,all advances,purple,seafoam,lightorange,Player C will be pleased,none-all-all,all-all-none,24,1,3269,NA
A3J9CFTGD26F0P,English,all advances,lightorange,darkorange,yellow,None of the players will advance,all-all-all,all-all-all,25,1,2829,NA
A3J9CFTGD26F0P,English,all advances,brown,lavender,pink,Player B will be disappointed,none-half-half,half-none-half,26,7,3156,NA
A3J9CFTGD26F0P,English,all advances,wheat,purple,pink,Player A will be pleased,half-half-all,half-all-half,27,1,3445,NA
A3J9CFTGD26F0P,English,all advances,darkorange,royalblue,lavender,Player A will be disappointed,none-none-half,none-half-none,20,7,4391,NA
A3J9CFTGD26F0P,English,all advances,lightblue,wheat,yellow,All the players will advance,half-all-all,all-half-all,21,1,2671,NA
A3J9CFTGD26F0P,English,all advances,brown,tan,wheat,Exactly one player hit none of his shots,none-all-all,none-all-all,22,7,5854,NA
A3J9CFTGD26F0P,English,all advances,brown,grey,lightblue,Exactly one player hit some of his shots,all-all-all,all-all-all,23,1,3282,NA
A3J9CFTGD26F0P,English,all advances,purple,lavender,tan,Player A made shots,none-all-all,none-all-all,28,1,3132,NA
A3J9CFTGD26F0P,English,all advances,darkorange,brown,midnight,No player hit some of his shots,none-none-all,none-none-all,1,1,7328,NA
A3J9CFTGD26F0P,English,all advances,yellow,lightorange,lavender,Every player hit none of his shots,none-all-all,all-all-none,0,1,18235,NA
A3J9CFTGD26F0P,English,all advances,grey,lightorange,darkorange,Player C made shots,half-all-all,all-half-all,3,7,3998,NA
A3J9CFTGD26F0P,English,all advances,yellow,brown,seafoam,Most of the players will advance,half-half-all,half-all-half,2,1,5105,NA
A3J9CFTGD26F0P,English,all advances,royalblue,darkorange,seafoam,Player A will advance,half-half-all,half-all-half,5,1,3556,NA
A3J9CFTGD26F0P,English,all advances,royalblue,lightorange,darkorange,Player B will advance,none-all-all,all-all-none,4,7,3753,NA
A3J9CFTGD26F0P,English,all advances,royalblue,brown,pink,Every player hit some of his shots,none-half-all,half-none-all,7,1,9361,NA
A3J9CFTGD26F0P,English,all advances,yellow,midnight,seafoam,No player hit none of his shots,half-half-half,half-half-half,6,1,9727,NA
A3J9CFTGD26F0P,English,all advances,midnight,yellow,royalblue,Player C will be disappointed,all-all-all,all-all-all,9,1,4090,NA
A3J9CFTGD26F0P,English,all advances,seafoam,lavender,wheat,All of the players will advance,none-none-none,none-none-none,8,1,3718,NA
A3J9CFTGD26F0P,English,all advances,grey,yellow,lavender,Player B made shots,none-half-half,none-half-half,11,4,3670,NA
A3J9CFTGD26F0P,English,all advances,purple,seafoam,midnight,Exactly one player hit all of his shots,none-none-all,none-none-all,10,7,3993,NA
A3J9CFTGD26F0P,English,all advances,lavender,grey,royalblue,Player B will be pleased,none-half-half,none-half-half,13,2,3398,NA
A3J9CFTGD26F0P,English,all advances,pink,lightblue,brown,Every player hit all of his shots,none-half-all,all-none-half,12,1,3935,NA
A3J9CFTGD26F0P,English,all advances,pink,lightblue,wheat,One player will advance,none-all-all,all-all-none,15,5,4719,NA
A3J9CFTGD26F0P,English,all advances,purple,darkorange,brown,At least one player will advance,none-none-none,none-none-none,14,1,2700,NA
A3J9CFTGD26F0P,English,all advances,purple,pink,royalblue,No player hit all of his shots,none-none-half,none-none-half,17,1,3769,NA
A3J9CFTGD26F0P,English,all advances,midnight,lightblue,lavender,Two players will advance,half-all-all,all-half-all,16,7,3191,NA
A3J9CFTGD26F0P,English,all advances,purple,darkorange,brown,Three players will advance,none-all-all,none-all-all,19,1,9037,NA
A3J9CFTGD26F0P,English,all advances,wheat,pink,grey,Player C will advance,none-none-none,none-none-none,18,1,4728,NA
A3J9CFTGD26F0P,English,all advances,lightorange,brown,royalblue,Player A was the star player of the round,most-none-all,most-none-all,-1,1,10218,yes
A3J9CFTGD26F0P,English,all advances,purple,wheat,brown,Player C messed up,all-all-none,all-all-none,-3,7,10856,yes
A3J9CFTGD26F0P,English,all advances,tan,brown,royalblue,Player B will advance to the next round,all-few-none,all-few-none,-2,2,8502,yes
A1EHENO19YXISR,Portuguese,any advances,grey,lavender,midnight,Player C made shots,half-all-all,all-half-all,24,7,5251,NA
A1EHENO19YXISR,Portuguese,any advances,seafoam,brown,lightblue,At least one player will advance,none-half-all,half-all-none,25,7,5040,NA
A1EHENO19YXISR,Portuguese,any advances,grey,purple,tan,Exactly one player hit all of his shots,none-none-half,none-none-half,26,1,5476,NA
A1EHENO19YXISR,Portuguese,any advances,yellow,grey,brown,Player A will advance,half-half-all,half-half-all,27,6,8132,NA
A1EHENO19YXISR,Portuguese,any advances,lavender,lightblue,lightorange,Player B will be pleased,none-all-all,none-all-all,20,7,4777,NA
A1EHENO19YXISR,Portuguese,any advances,lightorange,lavender,pink,No player hit some of his shots,half-half-half,half-half-half,21,1,8740,NA
A1EHENO19YXISR,Portuguese,any advances,yellow,pink,darkorange,Player C will advance,none-half-half,half-half-none,22,1,3619,NA
A1EHENO19YXISR,Portuguese,any advances,lightblue,lavender,midnight,Every player hit all of his shots,none-half-all,none-all-half,23,1,7017,NA
A1EHENO19YXISR,Portuguese,any advances,midnight,brown,lightblue,Player B made shots,none-none-half,none-none-half,28,1,4261,NA
A1EHENO19YXISR,Portuguese,any advances,wheat,purple,lightorange,Exactly one player hit some of his shots,half-half-all,half-all-half,1,1,10876,NA
A1EHENO19YXISR,Portuguese,any advances,pink,darkorange,brown,Every player hit some of his shots,none-none-none,none-none-none,0,1,22421,NA
A1EHENO19YXISR,Portuguese,any advances,yellow,midnight,tan,All the players will advance,half-half-half,half-half-half,3,7,4992,NA
A1EHENO19YXISR,Portuguese,any advances,midnight,lavender,darkorange,Player C will be disappointed,none-half-half,none-half-half,2,2,8209,NA
A1EHENO19YXISR,Portuguese,any advances,purple,lavender,royalblue,None of the players will advance,none-none-all,all-none-none,5,1,6635,NA
A1EHENO19YXISR,Portuguese,any advances,royalblue,tan,grey,Player A will be pleased,none-half-half,half-half-none,4,6,6702,NA
A1EHENO19YXISR,Portuguese,any advances,lightorange,seafoam,brown,All of the players will advance,half-half-all,all-half-half,7,6,9358,NA
A1EHENO19YXISR,Portuguese,any advances,seafoam,darkorange,yellow,No player hit none of his shots,half-all-all,all-half-all,6,1,13406,NA
A1EHENO19YXISR,Portuguese,any advances,brown,lightblue,lavender,Two players will advance,none-none-all,none-none-all,9,1,4476,NA
A1EHENO19YXISR,Portuguese,any advances,lavender,darkorange,purple,Player A made shots,none-none-half,none-half-none,8,1,8040,NA
A1EHENO19YXISR,Portuguese,any advances,purple,pink,yellow,Player C will be pleased,none-half-half,half-half-none,11,1,3643,NA
A1EHENO19YXISR,Portuguese,any advances,pink,seafoam,lavender,Player B will advance,none-half-all,half-none-all,10,1,5080,NA
A1EHENO19YXISR,Portuguese,any advances,grey,lightorange,wheat,One player will advance,none-half-half,half-none-half,13,2,7119,NA
A1EHENO19YXISR,Portuguese,any advances,purple,royalblue,lavender,Player B will be disappointed,none-half-all,none-all-half,12,1,4531,NA
A1EHENO19YXISR,Portuguese,any advances,grey,purple,seafoam,Exactly one player hit none of his shots,none-none-all,none-all-none,15,5,9032,NA
A1EHENO19YXISR,Portuguese,any advances,brown,seafoam,lightblue,Most of the players will advance,none-half-half,none-half-half,14,6,7378,NA
A1EHENO19YXISR,Portuguese,any advances,lavender,purple,brown,Player A will be disappointed,none-none-none,none-none-none,17,7,6726,NA
A1EHENO19YXISR,Portuguese,any advances,grey,lightorange,pink,Three players will advance,none-none-all,none-none-all,16,1,6645,NA
A1EHENO19YXISR,Portuguese,any advances,wheat,lavender,darkorange,No player hit all of his shots,half-all-all,all-all-half,19,1,6782,NA
A1EHENO19YXISR,Portuguese,any advances,royalblue,purple,darkorange,Every player hit none of his shots,none-none-all,all-none-none,18,1,6477,NA
A1EHENO19YXISR,Portuguese,any advances,midnight,royalblue,brown,Player A was the star player of the round,most-none-all,most-none-all,-1,2,28805,no
A1EHENO19YXISR,Portuguese,any advances,wheat,midnight,purple,Player C messed up,all-all-none,all-all-none,-3,7,19402,yes
A1EHENO19YXISR,Portuguese,any advances,yellow,wheat,darkorange,Player B will advance to the next round,all-few-none,all-few-none,-2,7,43249,no
A8RFIU0K3NSSD,English,all advances,royalblue,grey,wheat,Player C made shots,none-half-all,all-half-none,24,1,2614,NA
A8RFIU0K3NSSD,English,all advances,yellow,purple,lightorange,Player B made shots,none-none-half,none-none-half,25,1,2405,NA
A8RFIU0K3NSSD,English,all advances,royalblue,grey,purple,None of the players will advance,none-half-all,none-half-all,26,1,4624,NA
A8RFIU0K3NSSD,English,all advances,darkorange,seafoam,yellow,Exactly one player hit all of his shots,half-half-half,half-half-half,27,1,4205,NA
A8RFIU0K3NSSD,English,all advances,purple,tan,midnight,Exactly one player hit none of his shots,none-none-half,none-none-half,20,1,3399,NA
A8RFIU0K3NSSD,English,all advances,lavender,brown,seafoam,All of the players will advance,none-none-half,none-none-half,21,1,3255,NA
A8RFIU0K3NSSD,English,all advances,tan,yellow,darkorange,Player B will be disappointed,half-half-all,half-half-all,22,7,7968,NA
A8RFIU0K3NSSD,English,all advances,lightorange,royalblue,pink,Player B will be pleased,none-half-all,all-none-half,23,1,2647,NA
A8RFIU0K3NSSD,English,all advances,pink,brown,grey,Player A will advance,none-half-half,half-none-half,28,1,2551,NA
A8RFIU0K3NSSD,English,all advances,pink,tan,seafoam,No player hit none of his shots,none-half-all,half-none-all,1,1,5405,NA
A8RFIU0K3NSSD,English,all advances,lightorange,purple,grey,Player C will be disappointed,none-all-all,none-all-all,0,1,5739,NA
A8RFIU0K3NSSD,English,all advances,wheat,seafoam,tan,Player C will advance,none-half-all,all-none-half,3,1,3750,NA
A8RFIU0K3NSSD,English,all advances,pink,lightblue,seafoam,All the players will advance,none-half-half,none-half-half,2,1,4654,NA
A8RFIU0K3NSSD,English,all advances,yellow,tan,lightorange,Most of the players will advance,none-none-all,all-none-none,5,1,5127,NA
A8RFIU0K3NSSD,English,all advances,purple,wheat,seafoam,Every player hit all of his shots,none-half-all,half-all-none,4,1,4207,NA
A8RFIU0K3NSSD,English,all advances,lightorange,midnight,darkorange,Three players will advance,all-all-all,all-all-all,7,7,3374,NA
A8RFIU0K3NSSD,English,all advances,royalblue,tan,seafoam,No player hit all of his shots,half-half-half,half-half-half,6,2,5894,NA
A8RFIU0K3NSSD,English,all advances,lavender,lightorange,purple,No player hit some of his shots,none-half-half,half-half-none,9,2,5831,NA
A8RFIU0K3NSSD,English,all advances,tan,yellow,purple,Two players will advance,none-none-none,none-none-none,8,1,2970,NA
A8RFIU0K3NSSD,English,all advances,yellow,purple,darkorange,Player A will be pleased,none-none-half,none-half-none,11,1,2967,NA
A8RFIU0K3NSSD,English,all advances,brown,pink,tan,Player C will be pleased,half-half-half,half-half-half,10,2,9406,NA
A8RFIU0K3NSSD,English,all advances,seafoam,darkorange,tan,Every player hit some of his shots,none-half-half,half-none-half,13,1,4653,NA
A8RFIU0K3NSSD,English,all advances,midnight,wheat,royalblue,At least one player will advance,none-none-none,none-none-none,12,1,2680,NA
A8RFIU0K3NSSD,English,all advances,tan,seafoam,wheat,Player A will be disappointed,all-all-all,all-all-all,15,1,3398,NA
A8RFIU0K3NSSD,English,all advances,purple,seafoam,tan,Player B will advance,half-half-half,half-half-half,14,1,2695,NA
A8RFIU0K3NSSD,English,all advances,grey,pink,lightblue,Exactly one player hit some of his shots,none-none-all,all-none-none,17,1,4479,NA
A8RFIU0K3NSSD,English,all advances,yellow,lightblue,purple,Every player hit none of his shots,none-none-half,half-none-none,16,1,3319,NA
A8RFIU0K3NSSD,English,all advances,pink,grey,lightorange,One player will advance,all-all-all,all-all-all,19,1,2271,NA
A8RFIU0K3NSSD,English,all advances,wheat,darkorange,tan,Player A made shots,half-half-all,half-all-half,18,2,4709,NA
A8RFIU0K3NSSD,English,all advances,tan,royalblue,grey,Player A was the star player of the round,most-none-all,most-none-all,-1,1,7502,yes
A8RFIU0K3NSSD,English,all advances,grey,brown,yellow,Player C messed up,all-all-none,all-all-none,-3,7,11137,yes
A8RFIU0K3NSSD,English,all advances,lightorange,seafoam,darkorange,Player B will advance to the next round,all-few-none,all-few-none,-2,1,8307,yes
A171UMOFDHIO58,English,all advances,darkorange,grey,lightblue,Two players will advance,half-half-half,half-half-half,24,1,4303,NA
A171UMOFDHIO58,English,all advances,midnight,purple,tan,Every player hit none of his shots,half-half-all,all-half-half,25,1,5713,NA
A171UMOFDHIO58,English,all advances,pink,wheat,grey,Player B will be pleased,none-half-half,half-none-half,26,1,4215,NA
A171UMOFDHIO58,English,all advances,lightorange,wheat,pink,Player C will be pleased,half-all-all,all-all-half,27,1,3827,NA
A171UMOFDHIO58,English,all advances,yellow,lightorange,lavender,Player A will be disappointed,none-all-all,none-all-all,20,7,3764,NA
A171UMOFDHIO58,English,all advances,lightblue,royalblue,pink,Every player hit some of his shots,none-none-none,none-none-none,21,1,3785,NA
A171UMOFDHIO58,English,all advances,seafoam,lightblue,midnight,Player A will be pleased,half-all-all,all-all-half,22,7,4928,NA
A171UMOFDHIO58,English,all advances,royalblue,pink,midnight,One player will advance,all-all-all,all-all-all,23,1,4754,NA
A171UMOFDHIO58,English,all advances,lightorange,brown,purple,Player C will be disappointed,none-none-none,none-none-none,28,7,3174,NA
A171UMOFDHIO58,English,all advances,seafoam,lightorange,pink,None of the players will advance,half-half-all,half-all-half,1,1,19254,NA
A171UMOFDHIO58,English,all advances,yellow,midnight,lavender,Player A will advance,none-all-all,all-all-none,0,7,5110,NA
A171UMOFDHIO58,English,all advances,royalblue,midnight,lightorange,Exactly one player hit none of his shots,all-all-all,all-all-all,3,1,6580,NA
A171UMOFDHIO58,English,all advances,seafoam,brown,lavender,Every player hit all of his shots,half-all-all,all-half-all,2,1,4848,NA
A171UMOFDHIO58,English,all advances,lavender,darkorange,seafoam,All of the players will advance,all-all-all,all-all-all,5,7,3568,NA
A171UMOFDHIO58,English,all advances,yellow,grey,pink,Player A made shots,none-half-half,none-half-half,4,1,4764,NA
A171UMOFDHIO58,English,all advances,brown,purple,seafoam,At least one player will advance,none-none-half,none-none-half,7,1,4566,NA
A171UMOFDHIO58,English,all advances,seafoam,grey,lightorange,Three players will advance,half-half-half,half-half-half,6,1,4600,NA
A171UMOFDHIO58,English,all advances,wheat,midnight,yellow,Player B will advance,none-half-half,none-half-half,9,1,3958,NA
A171UMOFDHIO58,English,all advances,tan,yellow,grey,Exactly one player hit some of his shots,none-none-half,none-none-half,8,7,6488,NA
A171UMOFDHIO58,English,all advances,grey,pink,lightorange,No player hit all of his shots,none-half-half,half-none-half,11,7,6131,NA
A171UMOFDHIO58,English,all advances,lightorange,darkorange,purple,Most of the players will advance,none-none-none,none-none-none,10,1,3222,NA
A171UMOFDHIO58,English,all advances,darkorange,lightorange,lavender,Exactly one player hit all of his shots,all-all-all,all-all-all,13,1,3972,NA
A171UMOFDHIO58,English,all advances,lightblue,lavender,pink,All the players will advance,half-half-half,half-half-half,12,1,3106,NA
A171UMOFDHIO58,English,all advances,pink,midnight,lightblue,No player hit none of his shots,none-half-half,half-half-none,15,1,5924,NA
A171UMOFDHIO58,English,all advances,lightorange,grey,purple,Player B will be disappointed,all-all-all,all-all-all,14,1,4802,NA
A171UMOFDHIO58,English,all advances,tan,wheat,darkorange,No player hit some of his shots,none-none-all,none-all-none,17,1,8461,NA
A171UMOFDHIO58,English,all advances,pink,midnight,wheat,Player C made shots,all-all-all,all-all-all,16,7,2972,NA
A171UMOFDHIO58,English,all advances,grey,lavender,yellow,Player B made shots,none-none-all,all-none-none,19,1,4281,NA
A171UMOFDHIO58,English,all advances,grey,darkorange,yellow,Player C will advance,half-all-all,half-all-all,18,7,3709,NA
A171UMOFDHIO58,English,all advances,lightorange,yellow,purple,Player A was the star player of the round,most-none-all,most-none-all,-1,1,8405,yes
A171UMOFDHIO58,English,all advances,lightorange,lightblue,purple,Player C messed up,all-all-none,all-all-none,-3,7,34442,no
A171UMOFDHIO58,English,all advances,brown,lavender,purple,Player B will advance to the next round,all-few-none,all-few-none,-2,1,19701,no
A2W770QE7OXHZS,english ,all advances,midnight,wheat,lightorange,Three players will advance,none-none-all,all-none-none,24,1,3942,NA
A2W770QE7OXHZS,english ,all advances,darkorange,lightorange,purple,Every player hit all of his shots,none-none-none,none-none-none,25,1,12788,NA
A2W770QE7OXHZS,english ,all advances,yellow,seafoam,midnight,Player A will be pleased,none-all-all,none-all-all,26,1,4085,NA
A2W770QE7OXHZS,english ,all advances,lavender,midnight,wheat,Exactly one player hit some of his shots,half-half-half,half-half-half,27,4,3933,NA
A2W770QE7OXHZS,english ,all advances,brown,seafoam,grey,Player A will be disappointed,none-none-none,none-none-none,20,7,3421,NA
A2W770QE7OXHZS,english ,all advances,wheat,darkorange,midnight,Player B will advance,half-all-all,all-all-half,21,7,4136,NA
A2W770QE7OXHZS,english ,all advances,tan,midnight,lavender,Most of the players will advance,none-none-half,none-half-none,22,1,5621,NA
A2W770QE7OXHZS,english ,all advances,midnight,grey,royalblue,Player A made shots,none-all-all,none-all-all,23,1,18487,NA
A2W770QE7OXHZS,english ,all advances,tan,grey,darkorange,Player C will be pleased,all-all-all,all-all-all,28,7,2927,NA
A2W770QE7OXHZS,english ,all advances,seafoam,purple,tan,Player C will be disappointed,all-all-all,all-all-all,1,1,4165,NA
A2W770QE7OXHZS,english ,all advances,wheat,pink,brown,Player B made shots,none-none-all,all-none-none,0,1,5595,NA
A2W770QE7OXHZS,english ,all advances,tan,yellow,seafoam,All the players will advance,half-all-all,half-all-all,3,3,5813,NA
A2W770QE7OXHZS,english ,all advances,darkorange,lavender,royalblue,Player B will be disappointed,none-half-all,all-half-none,2,4,4950,NA
A2W770QE7OXHZS,english ,all advances,lightblue,lightorange,pink,All of the players will advance,none-half-all,all-half-none,5,1,4479,NA
A2W770QE7OXHZS,english ,all advances,royalblue,grey,wheat,Every player hit none of his shots,none-none-none,none-none-none,4,7,4668,NA
A2W770QE7OXHZS,english ,all advances,darkorange,midnight,yellow,No player hit all of his shots,none-none-half,half-none-none,7,7,9630,NA
A2W770QE7OXHZS,english ,all advances,seafoam,pink,royalblue,One player will advance,half-half-all,half-half-all,6,7,10350,NA
A2W770QE7OXHZS,english ,all advances,wheat,tan,pink,Player C made shots,half-all-all,all-half-all,9,7,4630,NA
A2W770QE7OXHZS,english ,all advances,royalblue,tan,grey,Exactly one player hit all of his shots,none-none-all,none-all-none,8,7,4854,NA
A2W770QE7OXHZS,english ,all advances,darkorange,purple,tan,Exactly one player hit none of his shots,none-half-all,none-half-all,11,7,4564,NA
A2W770QE7OXHZS,english ,all advances,seafoam,darkorange,lavender,Two players will advance,none-half-all,none-half-all,10,4,5249,NA
A2W770QE7OXHZS,english ,all advances,darkorange,brown,lavender,No player hit none of his shots,none-all-all,none-all-all,13,1,5317,NA
A2W770QE7OXHZS,english ,all advances,grey,lightblue,purple,No player hit some of his shots,half-half-half,half-half-half,12,1,6108,NA
A2W770QE7OXHZS,english ,all advances,seafoam,lightblue,purple,Player A will advance,half-half-half,half-half-half,15,4,3262,NA
A2W770QE7OXHZS,english ,all advances,brown,purple,lightblue,Player C will advance,half-half-half,half-half-half,14,4,12518,NA
A2W770QE7OXHZS,english ,all advances,seafoam,purple,wheat,None of the players will advance,none-none-half,none-half-none,17,4,6128,NA
A2W770QE7OXHZS,english ,all advances,yellow,brown,wheat,Player B will be pleased,none-none-none,none-none-none,16,1,2732,NA
A2W770QE7OXHZS,english ,all advances,brown,royalblue,lightblue,Every player hit some of his shots,none-half-half,half-half-none,19,7,4158,NA
A2W770QE7OXHZS,english ,all advances,lightorange,seafoam,purple,At least one player will advance,none-half-all,all-half-none,18,7,3973,NA
A2W770QE7OXHZS,english ,all advances,grey,lavender,royalblue,Player A was the star player of the round,most-none-all,most-none-all,-1,1,7577,yes
A2W770QE7OXHZS,english ,all advances,yellow,purple,seafoam,Player C messed up,all-all-none,all-all-none,-3,7,14966,yes
A2W770QE7OXHZS,english ,all advances,lightblue,seafoam,lavender,Player B will advance to the next round,all-few-none,all-few-none,-2,1,16880,no
A3LTCJRLT895T4,english,all advances,pink,purple,tan,Player A will be pleased,none-none-half,half-none-none,24,2,6468,NA
A3LTCJRLT895T4,english,all advances,tan,lightorange,wheat,At least one player will advance,half-all-all,all-half-all,25,5,8320,NA
A3LTCJRLT895T4,english,all advances,lavender,yellow,lightorange,Player A will be disappointed,all-all-all,all-all-all,26,1,3357,NA
A3LTCJRLT895T4,english,all advances,lavender,seafoam,tan,Player B will be disappointed,half-half-all,half-all-half,27,1,3798,NA
A3LTCJRLT895T4,english,all advances,brown,darkorange,lavender,Three players will advance,none-half-half,half-none-half,20,1,4188,NA
A3LTCJRLT895T4,english,all advances,lightorange,lavender,yellow,Every player hit all of his shots,none-none-half,none-half-none,21,1,3694,NA
A3LTCJRLT895T4,english,all advances,tan,darkorange,royalblue,None of the players will advance,none-none-half,half-none-none,22,7,4763,NA
A3LTCJRLT895T4,english,all advances,wheat,tan,lightorange,Player C made shots,none-half-half,half-half-none,23,1,3570,NA
A3LTCJRLT895T4,english,all advances,tan,brown,lightorange,Player A made shots,none-all-all,none-all-all,28,1,3714,NA
A3LTCJRLT895T4,english,all advances,purple,wheat,tan,Player B will be pleased,all-all-all,all-all-all,1,7,6475,NA
A3LTCJRLT895T4,english,all advances,purple,lightblue,darkorange,Player C will be disappointed,none-none-all,all-none-none,0,7,5702,NA
A3LTCJRLT895T4,english,all advances,seafoam,brown,lightorange,Player A will advance,half-half-all,all-half-half,3,7,5064,NA
A3LTCJRLT895T4,english,all advances,pink,lavender,seafoam,Most of the players will advance,none-half-all,none-all-half,2,1,6927,NA
A3LTCJRLT895T4,english,all advances,yellow,royalblue,wheat,All the players will advance,half-half-all,all-half-half,5,1,4045,NA
A3LTCJRLT895T4,english,all advances,lightblue,grey,purple,Player B made shots,none-all-all,all-all-none,4,4,11686,NA
A3LTCJRLT895T4,english,all advances,purple,pink,brown,Player B will advance,all-all-all,all-all-all,7,7,4042,NA
A3LTCJRLT895T4,english,all advances,lavender,tan,lightblue,Player C will advance,half-all-all,all-all-half,6,1,3496,NA
A3LTCJRLT895T4,english,all advances,royalblue,lavender,grey,No player hit all of his shots,none-none-none,none-none-none,9,5,11477,NA
A3LTCJRLT895T4,english,all advances,brown,yellow,lavender,One player will advance,none-all-all,all-none-all,8,1,4483,NA
A3LTCJRLT895T4,english,all advances,brown,wheat,seafoam,No player hit some of his shots,none-half-half,half-none-half,11,1,8389,NA
A3LTCJRLT895T4,english,all advances,midnight,tan,royalblue,Two players will advance,none-none-half,none-half-none,10,1,4868,NA
A3LTCJRLT895T4,english,all advances,yellow,wheat,pink,No player hit none of his shots,half-all-all,all-half-all,13,1,4236,NA
A3LTCJRLT895T4,english,all advances,lavender,royalblue,lightorange,Every player hit some of his shots,half-half-all,half-all-half,12,6,5754,NA
A3LTCJRLT895T4,english,all advances,midnight,grey,seafoam,Exactly one player hit all of his shots,none-half-half,half-none-half,15,1,7182,NA
A3LTCJRLT895T4,english,all advances,darkorange,pink,grey,Player C will be pleased,none-half-half,none-half-half,14,1,3273,NA
A3LTCJRLT895T4,english,all advances,yellow,tan,purple,Exactly one player hit some of his shots,none-none-none,none-none-none,17,1,3511,NA
A3LTCJRLT895T4,english,all advances,tan,seafoam,darkorange,Every player hit none of his shots,all-all-all,all-all-all,16,1,7001,NA
A3LTCJRLT895T4,english,all advances,lavender,tan,lightblue,All of the players will advance,half-all-all,all-half-all,19,1,4652,NA
A3LTCJRLT895T4,english,all advances,lavender,seafoam,royalblue,Exactly one player hit none of his shots,none-half-half,half-none-half,18,7,6839,NA
A3LTCJRLT895T4,english,all advances,darkorange,purple,lavender,Player A was the star player of the round,most-none-all,most-none-all,-1,1,9241,yes
A3LTCJRLT895T4,english,all advances,yellow,lightorange,wheat,Player C messed up,all-all-none,all-all-none,-3,7,14296,yes
A3LTCJRLT895T4,english,all advances,lavender,seafoam,yellow,Player B will advance to the next round,all-few-none,all-few-none,-2,1,9794,yes
A2JTDTGLA7IZ0L,English,any advances,seafoam,darkorange,royalblue,Every player hit none of his shots,none-none-half,half-none-none,24,2,5364,NA
A2JTDTGLA7IZ0L,English,any advances,pink,purple,grey,Every player hit some of his shots,all-all-all,all-all-all,25,6,2639,NA
A2JTDTGLA7IZ0L,English,any advances,yellow,lightorange,midnight,All the players will advance,half-all-all,all-half-all,26,6,4342,NA
A2JTDTGLA7IZ0L,English,any advances,pink,midnight,seafoam,One player will advance,none-none-none,none-none-none,27,1,3033,NA
A2JTDTGLA7IZ0L,English,any advances,lightorange,wheat,tan,No player hit some of his shots,none-none-none,none-none-none,20,7,3828,NA
A2JTDTGLA7IZ0L,English,any advances,royalblue,yellow,pink,Exactly one player hit some of his shots,none-none-half,none-half-none,21,7,3934,NA
A2JTDTGLA7IZ0L,English,any advances,pink,yellow,purple,Player C made shots,none-half-half,half-none-half,22,6,3131,NA
A2JTDTGLA7IZ0L,English,any advances,lightblue,darkorange,seafoam,No player hit none of his shots,none-none-all,none-none-all,23,1,6182,NA
A2JTDTGLA7IZ0L,English,any advances,grey,brown,royalblue,Most of the players will advance,all-all-all,all-all-all,28,5,3247,NA
A2JTDTGLA7IZ0L,English,any advances,grey,seafoam,lavender,Three players will advance,none-all-all,all-all-none,1,2,4645,NA
A2JTDTGLA7IZ0L,English,any advances,tan,royalblue,midnight,Player A will be pleased,none-none-half,none-none-half,0,1,5611,NA
A2JTDTGLA7IZ0L,English,any advances,grey,lightblue,lightorange,No player hit all of his shots,none-none-half,none-half-none,3,7,3829,NA
A2JTDTGLA7IZ0L,English,any advances,midnight,purple,lightorange,Player C will advance,half-all-all,all-all-half,2,6,4042,NA
A2JTDTGLA7IZ0L,English,any advances,wheat,brown,pink,Player A will be disappointed,half-half-all,all-half-half,5,2,7542,NA
A2JTDTGLA7IZ0L,English,any advances,lavender,pink,lightblue,None of the players will advance,none-none-all,all-none-none,4,1,4568,NA
A2JTDTGLA7IZ0L,English,any advances,darkorange,lightorange,midnight,Player C will be pleased,half-all-all,all-half-all,7,6,4691,NA
A2JTDTGLA7IZ0L,English,any advances,lightblue,tan,yellow,Exactly one player hit all of his shots,none-all-all,all-none-all,6,1,4900,NA
A2JTDTGLA7IZ0L,English,any advances,seafoam,lavender,royalblue,Two players will advance,half-half-half,half-half-half,9,4,4957,NA
A2JTDTGLA7IZ0L,English,any advances,lavender,pink,tan,Player C will be disappointed,none-none-none,none-none-none,8,6,4676,NA
A2JTDTGLA7IZ0L,English,any advances,midnight,pink,yellow,Player B will be disappointed,none-none-half,none-half-none,11,2,6005,NA
A2JTDTGLA7IZ0L,English,any advances,pink,midnight,lavender,Exactly one player hit none of his shots,none-none-half,half-none-none,10,1,5327,NA
A2JTDTGLA7IZ0L,English,any advances,lightblue,brown,royalblue,Player B made shots,none-all-all,all-all-none,13,7,5268,NA
A2JTDTGLA7IZ0L,English,any advances,tan,lightblue,pink,Player B will be pleased,none-all-all,none-all-all,12,6,4350,NA
A2JTDTGLA7IZ0L,English,any advances,lightorange,darkorange,brown,At least one player will advance,none-half-half,half-none-half,15,6,6809,NA
A2JTDTGLA7IZ0L,English,any advances,purple,grey,brown,Player A made shots,all-all-all,all-all-all,14,7,3695,NA
A2JTDTGLA7IZ0L,English,any advances,pink,purple,brown,Player A will advance,half-half-all,half-half-all,17,7,3302,NA
A2JTDTGLA7IZ0L,English,any advances,wheat,darkorange,brown,Every player hit all of his shots,half-all-all,half-all-all,16,2,3043,NA
A2JTDTGLA7IZ0L,English,any advances,brown,grey,midnight,Player B will advance,all-all-all,all-all-all,19,7,6980,NA
A2JTDTGLA7IZ0L,English,any advances,lavender,royalblue,darkorange,All of the players will advance,none-half-half,none-half-half,18,2,5244,NA
A2JTDTGLA7IZ0L,English,any advances,lightorange,wheat,brown,Player A was the star player of the round,most-none-all,most-none-all,-1,2,9436,yes
A2JTDTGLA7IZ0L,English,any advances,tan,lightorange,midnight,Player C messed up,all-all-none,all-all-none,-3,6,28032,no
A2JTDTGLA7IZ0L,English,any advances,wheat,lavender,brown,Player B will advance to the next round,all-few-none,all-few-none,-2,7,16774,no
A3LMI7ZDFO8JHR,englsh,all advances,lavender,midnight,yellow,Player A made shots,none-none-half,none-none-half,24,1,4897,NA
A3LMI7ZDFO8JHR,englsh,all advances,lavender,brown,darkorange,Two players will advance,none-half-all,half-none-all,25,5,8706,NA
A3LMI7ZDFO8JHR,englsh,all advances,lightorange,lightblue,yellow,One player will advance,none-none-none,none-none-none,26,1,4372,NA
A3LMI7ZDFO8JHR,englsh,all advances,lightorange,lightblue,tan,All of the players will advance,half-half-half,half-half-half,27,7,48187,NA
A3LMI7ZDFO8JHR,englsh,all advances,brown,yellow,seafoam,Player A will be disappointed,none-half-all,none-half-all,20,7,8019,NA
A3LMI7ZDFO8JHR,englsh,all advances,lavender,lightorange,grey,Player C will be disappointed,half-half-half,half-half-half,21,4,11683,NA
A3LMI7ZDFO8JHR,englsh,all advances,tan,midnight,wheat,Player A will be pleased,half-half-half,half-half-half,22,4,5124,NA
A3LMI7ZDFO8JHR,englsh,all advances,tan,midnight,brown,Exactly one player hit some of his shots,half-half-half,half-half-half,23,7,70142,NA
A3LMI7ZDFO8JHR,englsh,all advances,yellow,purple,lightblue,Three players will advance,none-none-all,none-all-none,28,1,11756,NA
A3LMI7ZDFO8JHR,englsh,all advances,lavender,yellow,tan,Player B made shots,half-all-all,half-all-all,1,7,6881,NA
A3LMI7ZDFO8JHR,englsh,all advances,seafoam,yellow,pink,Player C will advance,half-half-half,half-half-half,0,3,42357,NA
A3LMI7ZDFO8JHR,englsh,all advances,yellow,grey,royalblue,Every player hit all of his shots,none-all-all,all-all-none,3,1,2692,NA
A3LMI7ZDFO8JHR,englsh,all advances,brown,wheat,darkorange,No player hit none of his shots,all-all-all,all-all-all,2,4,67198,NA
A3LMI7ZDFO8JHR,englsh,all advances,darkorange,lightblue,purple,Exactly one player hit all of his shots,none-half-half,none-half-half,5,1,7442,NA
A3LMI7ZDFO8JHR,englsh,all advances,midnight,purple,pink,Player A will advance,half-all-all,half-all-all,4,7,2306,NA
A3LMI7ZDFO8JHR,englsh,all advances,purple,lightorange,brown,Player B will advance,none-none-all,none-none-all,7,7,9472,NA
A3LMI7ZDFO8JHR,englsh,all advances,midnight,seafoam,brown,Every player hit some of his shots,half-half-half,half-half-half,6,5,66585,NA
A3LMI7ZDFO8JHR,englsh,all advances,grey,lightblue,purple,At least one player will advance,none-none-none,none-none-none,9,1,26955,NA
A3LMI7ZDFO8JHR,englsh,all advances,lightorange,grey,royalblue,Every player hit none of his shots,none-half-half,half-none-half,8,3,93497,NA
A3LMI7ZDFO8JHR,englsh,all advances,seafoam,lightorange,yellow,Most of the players will advance,none-half-all,all-half-none,11,1,5149,NA
A3LMI7ZDFO8JHR,englsh,all advances,lightblue,wheat,lightorange,Player B will be disappointed,half-half-half,half-half-half,10,5,12273,NA
A3LMI7ZDFO8JHR,englsh,all advances,lightorange,grey,tan,Player C will be pleased,none-none-none,none-none-none,13,1,5498,NA
A3LMI7ZDFO8JHR,englsh,all advances,royalblue,lavender,wheat,Player C made shots,half-half-half,half-half-half,12,7,6082,NA
A3LMI7ZDFO8JHR,englsh,all advances,pink,brown,tan,Player B will be pleased,half-half-all,half-all-half,15,1,8434,NA
A3LMI7ZDFO8JHR,englsh,all advances,lavender,grey,brown,Exactly one player hit none of his shots,none-none-all,none-all-none,14,7,7156,NA
A3LMI7ZDFO8JHR,englsh,all advances,lightblue,grey,wheat,None of the players will advance,half-half-all,all-half-half,17,1,3964,NA
A3LMI7ZDFO8JHR,englsh,all advances,purple,midnight,royalblue,All the players will advance,none-half-half,half-none-half,16,1,7549,NA
A3LMI7ZDFO8JHR,englsh,all advances,lightblue,darkorange,midnight,No player hit all of his shots,all-all-all,all-all-all,19,1,10107,NA
A3LMI7ZDFO8JHR,englsh,all advances,darkorange,midnight,brown,No player hit some of his shots,half-half-half,half-half-half,18,1,16032,NA
A3LMI7ZDFO8JHR,englsh,all advances,lavender,pink,seafoam,Player A was the star player of the round,most-none-all,most-none-all,-1,1,16840,no
A3LMI7ZDFO8JHR,englsh,all advances,seafoam,purple,brown,Player C messed up,all-all-none,all-all-none,-3,7,60236,no
A3LMI7ZDFO8JHR,englsh,all advances,purple,midnight,pink,Player B will advance to the next round,all-few-none,all-few-none,-2,1,12587,yes
ALJED77L80VA3,English,any advances,lavender,purple,yellow,Every player hit all of his shots,half-half-all,half-all-half,24,1,2591,NA
ALJED77L80VA3,English,any advances,grey,royalblue,lightblue,Player C will be disappointed,half-half-half,half-half-half,25,2,3014,NA
ALJED77L80VA3,English,any advances,royalblue,pink,darkorange,Player A will advance,none-none-all,none-all-none,26,1,308200,NA
ALJED77L80VA3,English,any advances,brown,royalblue,seafoam,Three players will advance,none-all-all,all-none-all,27,1,3775,NA
ALJED77L80VA3,English,any advances,midnight,seafoam,purple,Player A made shots,all-all-all,all-all-all,20,7,10063,NA
ALJED77L80VA3,English,any advances,purple,pink,wheat,Exactly one player hit all of his shots,none-half-half,half-half-none,21,1,3441,NA
ALJED77L80VA3,English,any advances,lavender,wheat,midnight,No player hit all of his shots,none-half-half,half-none-half,22,7,5704,NA
ALJED77L80VA3,English,any advances,darkorange,wheat,pink,Exactly one player hit none of his shots,all-all-all,all-all-all,23,1,3976,NA
ALJED77L80VA3,English,any advances,lightblue,brown,royalblue,Player A will be disappointed,none-none-half,none-half-none,28,7,3012,NA
ALJED77L80VA3,English,any advances,seafoam,wheat,brown,None of the players will advance,none-half-half,none-half-half,1,1,7126,NA
ALJED77L80VA3,English,any advances,pink,darkorange,grey,Every player hit some of his shots,none-none-all,none-all-none,0,1,9687,NA
ALJED77L80VA3,English,any advances,royalblue,lightblue,brown,Player C will be pleased,none-all-all,all-none-all,3,7,5067,NA
ALJED77L80VA3,English,any advances,seafoam,brown,royalblue,Player A will be pleased,none-none-half,none-half-none,2,1,6587,NA
ALJED77L80VA3,English,any advances,brown,grey,yellow,Player C made shots,none-none-all,all-none-none,5,1,4408,NA
ALJED77L80VA3,English,any advances,pink,lavender,purple,At least one player will advance,none-none-none,none-none-none,4,1,5549,NA
ALJED77L80VA3,English,any advances,yellow,wheat,brown,No player hit none of his shots,none-none-all,none-all-none,7,1,8447,NA
ALJED77L80VA3,English,any advances,purple,darkorange,tan,Player B will be pleased,half-half-half,half-half-half,6,5,10317,NA
ALJED77L80VA3,English,any advances,wheat,pink,royalblue,Player C will advance,none-half-all,half-all-none,9,1,4774,NA
ALJED77L80VA3,English,any advances,grey,tan,darkorange,Most of the players will advance,none-none-all,all-none-none,8,1,4355,NA
ALJED77L80VA3,English,any advances,midnight,yellow,lightblue,Player B made shots,half-half-half,half-half-half,11,7,5566,NA
ALJED77L80VA3,English,any advances,brown,yellow,royalblue,Every player hit none of his shots,none-none-all,none-none-all,10,1,5487,NA
ALJED77L80VA3,English,any advances,yellow,brown,pink,No player hit some of his shots,half-all-all,half-all-all,13,1,7479,NA
ALJED77L80VA3,English,any advances,seafoam,royalblue,yellow,Two players will advance,none-none-none,none-none-none,12,1,106619,NA
ALJED77L80VA3,English,any advances,pink,lightblue,brown,Exactly one player hit some of his shots,half-half-half,half-half-half,15,1,3287,NA
ALJED77L80VA3,English,any advances,midnight,tan,yellow,Player B will advance,none-half-half,half-half-none,14,7,3623,NA
ALJED77L80VA3,English,any advances,wheat,brown,tan,All of the players will advance,none-none-all,none-none-all,17,1,2480,NA
ALJED77L80VA3,English,any advances,lightblue,pink,lightorange,Player B will be disappointed,none-half-half,half-none-half,16,7,4480,NA
ALJED77L80VA3,English,any advances,purple,darkorange,midnight,All the players will advance,none-none-all,all-none-none,19,1,30186,NA
ALJED77L80VA3,English,any advances,wheat,midnight,seafoam,One player will advance,half-half-half,half-half-half,18,5,5294,NA
ALJED77L80VA3,English,any advances,royalblue,tan,brown,Player A was the star player of the round,most-none-all,most-none-all,-1,1,13314,yes
ALJED77L80VA3,English,any advances,yellow,seafoam,lightblue,Player C messed up,all-all-none,all-all-none,-3,6,32753,no
ALJED77L80VA3,English,any advances,tan,yellow,brown,Player B will advance to the next round,all-few-none,all-few-none,-2,7,53068,no
A3P2COG7NO48MA,English,any advances,seafoam,yellow,purple,Player B will advance,none-none-none,none-none-none,24,1,3332,NA
A3P2COG7NO48MA,English,any advances,midnight,pink,tan,Player A made shots,none-half-all,all-none-half,25,5,4951,NA
A3P2COG7NO48MA,English,any advances,lightblue,brown,midnight,Two players will advance,none-all-all,none-all-all,26,7,3969,NA
A3P2COG7NO48MA,English,any advances,seafoam,midnight,darkorange,Player B made shots,half-half-all,half-all-half,27,5,6829,NA
A3P2COG7NO48MA,English,any advances,grey,wheat,lightblue,Most of the players will advance,half-half-half,half-half-half,20,5,5103,NA
A3P2COG7NO48MA,English,any advances,brown,darkorange,lightblue,Exactly one player hit all of his shots,all-all-all,all-all-all,21,1,3558,NA
A3P2COG7NO48MA,English,any advances,midnight,seafoam,lavender,One player will advance,none-none-all,none-all-none,22,7,3450,NA
A3P2COG7NO48MA,English,any advances,yellow,grey,lightorange,Exactly one player hit some of his shots,half-all-all,all-half-all,23,1,4563,NA
A3P2COG7NO48MA,English,any advances,lavender,grey,pink,No player hit none of his shots,none-none-none,none-none-none,28,1,3568,NA
A3P2COG7NO48MA,English,any advances,yellow,grey,brown,Every player hit none of his shots,none-none-all,none-none-all,1,1,9133,NA
A3P2COG7NO48MA,English,any advances,lightblue,lavender,midnight,Player B will be pleased,half-half-all,all-half-half,0,6,10474,NA
A3P2COG7NO48MA,English,any advances,lightorange,lavender,royalblue,At least one player will advance,all-all-all,all-all-all,3,6,6484,NA
A3P2COG7NO48MA,English,any advances,wheat,purple,midnight,Every player hit some of his shots,half-all-all,all-all-half,2,7,6122,NA
A3P2COG7NO48MA,English,any advances,lightorange,pink,grey,Player A will be pleased,half-half-all,all-half-half,5,7,4607,NA
A3P2COG7NO48MA,English,any advances,purple,royalblue,darkorange,Player C will advance,none-none-all,all-none-none,4,1,3500,NA
A3P2COG7NO48MA,English,any advances,brown,lightblue,royalblue,All of the players will advance,none-none-all,none-all-none,7,1,3168,NA
A3P2COG7NO48MA,English,any advances,darkorange,lavender,seafoam,Exactly one player hit none of his shots,half-half-all,half-half-all,6,1,6634,NA
A3P2COG7NO48MA,English,any advances,royalblue,lavender,yellow,Player C will be pleased,none-none-all,none-all-none,9,1,3201,NA
A3P2COG7NO48MA,English,any advances,wheat,tan,grey,Player A will be disappointed,half-half-all,all-half-half,8,1,3647,NA
A3P2COG7NO48MA,English,any advances,brown,darkorange,lightorange,No player hit some of his shots,half-all-all,half-all-all,11,1,7910,NA
A3P2COG7NO48MA,English,any advances,tan,yellow,midnight,Every player hit all of his shots,half-half-all,all-half-half,10,1,3287,NA
A3P2COG7NO48MA,English,any advances,grey,wheat,lightorange,Player A will advance,half-half-all,half-half-all,13,7,5838,NA
A3P2COG7NO48MA,English,any advances,grey,lavender,tan,Player C made shots,none-all-all,all-none-all,12,6,7321,NA
A3P2COG7NO48MA,English,any advances,royalblue,seafoam,darkorange,No player hit all of his shots,none-none-all,none-all-none,15,1,4506,NA
A3P2COG7NO48MA,English,any advances,tan,grey,lavender,All the players will advance,half-half-all,all-half-half,14,7,4500,NA
A3P2COG7NO48MA,English,any advances,royalblue,pink,brown,Player B will be disappointed,none-none-none,none-none-none,17,6,4805,NA
A3P2COG7NO48MA,English,any advances,darkorange,lightorange,tan,None of the players will advance,none-all-all,all-all-none,16,1,3780,NA
A3P2COG7NO48MA,English,any advances,royalblue,darkorange,lightblue,Three players will advance,none-half-all,none-all-half,19,1,3211,NA
A3P2COG7NO48MA,English,any advances,pink,lightblue,seafoam,Player C will be disappointed,none-half-half,half-half-none,18,6,5082,NA
A3P2COG7NO48MA,English,any advances,lavender,yellow,darkorange,Player A was the star player of the round,most-none-all,most-none-all,-1,1,7849,yes
A3P2COG7NO48MA,English,any advances,tan,brown,wheat,Player C messed up,all-all-none,all-all-none,-3,6,13511,yes
A3P2COG7NO48MA,English,any advances,lightorange,darkorange,wheat,Player B will advance to the next round,all-few-none,all-few-none,-2,7,25091,no
A273Q0Z2RUC8U7,English,all advances,lightorange,royalblue,darkorange,No player hit none of his shots,none-none-none,none-none-none,24,1,17930,NA
A273Q0Z2RUC8U7,English,all advances,wheat,midnight,brown,All the players will advance,none-none-none,none-none-none,25,1,3590,NA
A273Q0Z2RUC8U7,English,all advances,lightblue,darkorange,seafoam,One player will advance,half-half-half,half-half-half,26,1,2464,NA
A273Q0Z2RUC8U7,English,all advances,yellow,grey,lightorange,Exactly one player hit none of his shots,half-half-all,all-half-half,27,1,5093,NA
A273Q0Z2RUC8U7,English,all advances,lightblue,seafoam,purple,Three players will advance,none-half-all,half-all-none,20,1,5376,NA
A273Q0Z2RUC8U7,English,all advances,seafoam,lightorange,brown,No player hit some of his shots,none-none-none,none-none-none,21,7,6970,NA
A273Q0Z2RUC8U7,English,all advances,seafoam,midnight,wheat,Player B will be disappointed,none-none-none,none-none-none,22,6,5327,NA
A273Q0Z2RUC8U7,English,all advances,wheat,grey,brown,Exactly one player hit some of his shots,half-half-all,half-half-all,23,1,7523,NA
A273Q0Z2RUC8U7,English,all advances,tan,lightblue,darkorange,Player C will be pleased,half-all-all,all-half-all,28,7,3131,NA
A273Q0Z2RUC8U7,English,all advances,tan,grey,yellow,Player A will advance,none-all-all,none-all-all,1,1,8802,NA
A273Q0Z2RUC8U7,English,all advances,tan,seafoam,darkorange,Player C will be disappointed,none-none-all,all-none-none,0,7,8647,NA
A273Q0Z2RUC8U7,English,all advances,darkorange,lavender,wheat,Every player hit some of his shots,none-none-half,none-half-none,3,1,6287,NA
A273Q0Z2RUC8U7,English,all advances,midnight,pink,grey,Player B will advance,none-all-all,all-all-none,2,7,5943,NA
A273Q0Z2RUC8U7,English,all advances,tan,lavender,grey,At least one player will advance,none-half-all,all-none-half,5,7,7686,NA
A273Q0Z2RUC8U7,English,all advances,purple,darkorange,tan,No player hit all of his shots,half-all-all,half-all-all,4,1,4966,NA
A273Q0Z2RUC8U7,English,all advances,brown,lightorange,tan,Every player hit none of his shots,none-half-all,half-none-all,7,1,10009,NA
A273Q0Z2RUC8U7,English,all advances,grey,wheat,darkorange,None of the players will advance,none-half-all,half-none-all,6,1,5684,NA
A273Q0Z2RUC8U7,English,all advances,yellow,pink,grey,Every player hit all of his shots,half-half-half,half-half-half,9,1,4555,NA
A273Q0Z2RUC8U7,English,all advances,pink,lightblue,midnight,Player A will be disappointed,none-none-all,none-all-none,8,7,9923,NA
A273Q0Z2RUC8U7,English,all advances,seafoam,royalblue,purple,Player A made shots,none-half-all,all-half-none,11,7,7859,NA
A273Q0Z2RUC8U7,English,all advances,tan,lavender,midnight,Two players will advance,none-half-all,half-all-none,10,1,6374,NA
A273Q0Z2RUC8U7,English,all advances,lightblue,wheat,grey,Player C will advance,none-none-half,none-none-half,13,1,5782,NA
A273Q0Z2RUC8U7,English,all advances,purple,midnight,tan,Most of the players will advance,none-none-all,none-none-all,12,1,3647,NA
A273Q0Z2RUC8U7,English,all advances,pink,yellow,grey,Exactly one player hit all of his shots,none-none-all,none-all-none,15,7,4479,NA
A273Q0Z2RUC8U7,English,all advances,seafoam,darkorange,midnight,Player B will be pleased,none-half-all,half-none-all,14,1,3938,NA
A273Q0Z2RUC8U7,English,all advances,lightblue,tan,midnight,All of the players will advance,all-all-all,all-all-all,17,7,4911,NA
A273Q0Z2RUC8U7,English,all advances,midnight,purple,yellow,Player A will be pleased,none-none-half,half-none-none,16,3,7895,NA
A273Q0Z2RUC8U7,English,all advances,grey,lavender,brown,Player C made shots,none-none-all,all-none-none,19,1,3931,NA
A273Q0Z2RUC8U7,English,all advances,lavender,yellow,wheat,Player B made shots,half-all-all,all-all-half,18,7,5039,NA
A273Q0Z2RUC8U7,English,all advances,royalblue,wheat,midnight,Player A was the star player of the round,most-none-all,most-none-all,-1,1,7024,yes
A273Q0Z2RUC8U7,English,all advances,wheat,tan,lightorange,Player C messed up,all-all-none,all-all-none,-3,7,13934,yes
A273Q0Z2RUC8U7,English,all advances,seafoam,brown,grey,Player B will advance to the next round,all-few-none,all-few-none,-2,1,7220,yes
A1KN3TP3P2NJHC,English,all advances,pink,midnight,seafoam,Player C made shots,none-half-half,half-half-none,24,1,3426,NA
A1KN3TP3P2NJHC,English,all advances,royalblue,seafoam,lavender,Player A made shots,none-all-all,all-none-all,25,6,4934,NA
A1KN3TP3P2NJHC,English,all advances,yellow,darkorange,grey,Player A will advance,none-none-none,none-none-none,26,1,2742,NA
A1KN3TP3P2NJHC,English,all advances,wheat,purple,lavender,Player C will advance,none-none-half,none-half-none,27,1,2888,NA
A1KN3TP3P2NJHC,English,all advances,purple,darkorange,tan,All of the players will advance,none-half-all,none-all-half,20,1,2856,NA
A1KN3TP3P2NJHC,English,all advances,midnight,lavender,seafoam,Exactly one player hit some of his shots,half-half-all,all-half-half,21,1,8753,NA
A1KN3TP3P2NJHC,English,all advances,purple,midnight,royalblue,Every player hit none of his shots,half-half-all,half-half-all,22,1,3825,NA
A1KN3TP3P2NJHC,English,all advances,lightorange,lavender,purple,Most of the players will advance,half-half-half,half-half-half,23,1,3460,NA
A1KN3TP3P2NJHC,English,all advances,pink,lightorange,tan,Player C will be pleased,half-all-all,all-all-half,28,1,3543,NA
A1KN3TP3P2NJHC,English,all advances,lavender,grey,darkorange,Three players will advance,none-half-all,half-none-all,1,1,5642,NA
A1KN3TP3P2NJHC,English,all advances,wheat,purple,seafoam,At least one player will advance,none-none-half,none-half-none,0,1,11133,NA
A1KN3TP3P2NJHC,English,all advances,brown,midnight,royalblue,None of the players will advance,half-all-all,all-half-all,3,1,11856,NA
A1KN3TP3P2NJHC,English,all advances,midnight,lightorange,wheat,Every player hit some of his shots,half-all-all,all-half-all,2,7,14575,NA
A1KN3TP3P2NJHC,English,all advances,grey,tan,pink,One player will advance,half-all-all,all-half-all,5,1,6727,NA
A1KN3TP3P2NJHC,English,all advances,lightblue,tan,lightorange,No player hit none of his shots,none-none-none,none-none-none,4,6,22611,NA
A1KN3TP3P2NJHC,English,all advances,royalblue,lightblue,brown,Player B will be pleased,none-none-none,none-none-none,7,1,2993,NA
A1KN3TP3P2NJHC,English,all advances,lightblue,darkorange,yellow,Player B will be disappointed,half-half-all,half-all-half,6,1,5194,NA
A1KN3TP3P2NJHC,English,all advances,lightorange,grey,seafoam,Exactly one player hit all of his shots,all-all-all,all-all-all,9,1,7394,NA
A1KN3TP3P2NJHC,English,all advances,lavender,tan,brown,Player B will advance,none-half-half,half-none-half,8,1,3208,NA
A1KN3TP3P2NJHC,English,all advances,darkorange,seafoam,lightorange,No player hit all of his shots,half-all-all,all-half-all,11,1,9369,NA
A1KN3TP3P2NJHC,English,all advances,brown,lightblue,lavender,Every player hit all of his shots,none-none-all,all-none-none,10,1,7236,NA
A1KN3TP3P2NJHC,English,all advances,purple,lightorange,lavender,Two players will advance,none-all-all,none-all-all,13,7,3939,NA
A1KN3TP3P2NJHC,English,all advances,grey,darkorange,tan,Player C will be disappointed,none-none-all,all-none-none,12,7,5786,NA
A1KN3TP3P2NJHC,English,all advances,lightblue,purple,grey,Exactly one player hit none of his shots,all-all-all,all-all-all,15,1,12291,NA
A1KN3TP3P2NJHC,English,all advances,grey,wheat,pink,No player hit some of his shots,none-half-half,half-half-none,14,4,22542,NA
A1KN3TP3P2NJHC,English,all advances,tan,brown,royalblue,All the players will advance,all-all-all,all-all-all,17,7,3504,NA
A1KN3TP3P2NJHC,English,all advances,darkorange,seafoam,grey,Player A will be disappointed,none-all-all,all-all-none,16,1,3471,NA
A1KN3TP3P2NJHC,English,all advances,yellow,tan,wheat,Player B made shots,none-none-all,none-all-none,19,6,7832,NA
A1KN3TP3P2NJHC,English,all advances,lightblue,grey,lavender,Player A will be pleased,half-all-all,all-all-half,18,7,3031,NA
A1KN3TP3P2NJHC,English,all advances,grey,pink,midnight,Player A was the star player of the round,most-none-all,most-none-all,-1,1,9440,yes
A1KN3TP3P2NJHC,English,all advances,darkorange,purple,pink,Player C messed up,all-all-none,all-all-none,-3,7,43430,no
A1KN3TP3P2NJHC,English,all advances,yellow,royalblue,grey,Player B will advance to the next round,all-few-none,all-few-none,-2,1,10441,yes
A3NSX46VYD9J49,English,any advances,seafoam,tan,grey,Player B will be pleased,half-all-all,half-all-all,24,7,3546,NA
A3NSX46VYD9J49,English,any advances,lavender,royalblue,brown,Player A will advance,all-all-all,all-all-all,25,7,3664,NA
A3NSX46VYD9J49,English,any advances,lavender,pink,yellow,Exactly one player hit all of his shots,all-all-all,all-all-all,26,1,4350,NA
A3NSX46VYD9J49,English,any advances,brown,grey,pink,Most of the players will advance,half-half-half,half-half-half,27,4,6106,NA
A3NSX46VYD9J49,English,any advances,yellow,tan,purple,Every player hit none of his shots,none-none-half,none-none-half,20,1,3880,NA
A3NSX46VYD9J49,English,any advances,brown,midnight,lightblue,Three players will advance,none-half-half,half-none-half,21,1,4225,NA
A3NSX46VYD9J49,English,any advances,brown,seafoam,lavender,Player B will be disappointed,none-half-half,none-half-half,22,3,6672,NA
A3NSX46VYD9J49,English,any advances,wheat,pink,grey,No player hit all of his shots,none-none-all,all-none-none,23,1,3794,NA
A3NSX46VYD9J49,English,any advances,yellow,grey,midnight,One player will advance,none-none-all,none-none-all,28,7,4326,NA
A3NSX46VYD9J49,English,any advances,tan,purple,lightblue,All of the players will advance,none-none-all,none-all-none,1,1,4773,NA
A3NSX46VYD9J49,English,any advances,wheat,lightorange,lavender,Two players will advance,half-half-half,half-half-half,0,1,20815,NA
A3NSX46VYD9J49,English,any advances,midnight,tan,seafoam,Exactly one player hit none of his shots,none-half-all,all-none-half,3,7,5093,NA
A3NSX46VYD9J49,English,any advances,seafoam,purple,pink,No player hit some of his shots,half-all-all,all-half-all,2,2,8574,NA
A3NSX46VYD9J49,English,any advances,lightblue,lightorange,brown,No player hit none of his shots,all-all-all,all-all-all,5,1,4975,NA
A3NSX46VYD9J49,English,any advances,seafoam,lavender,lightblue,None of the players will advance,none-none-none,none-none-none,4,7,5096,NA
A3NSX46VYD9J49,English,any advances,tan,lightblue,lightorange,Player A will be pleased,half-all-all,all-all-half,7,7,4196,NA
A3NSX46VYD9J49,English,any advances,yellow,royalblue,lavender,At least one player will advance,half-half-half,half-half-half,6,7,5384,NA
A3NSX46VYD9J49,English,any advances,midnight,lavender,wheat,Player A made shots,none-all-all,all-none-all,9,7,3054,NA
A3NSX46VYD9J49,English,any advances,lavender,midnight,yellow,Player C will advance,half-half-all,half-all-half,8,7,3612,NA
A3NSX46VYD9J49,English,any advances,yellow,purple,tan,Exactly one player hit some of his shots,half-half-half,half-half-half,11,7,3836,NA
A3NSX46VYD9J49,English,any advances,seafoam,purple,yellow,Player C will be disappointed,all-all-all,all-all-all,10,1,3244,NA
A3NSX46VYD9J49,English,any advances,brown,darkorange,yellow,Player A will be disappointed,half-all-all,half-all-all,13,3,7766,NA
A3NSX46VYD9J49,English,any advances,lightblue,midnight,brown,Player C will be pleased,none-none-all,all-none-none,12,1,4225,NA
A3NSX46VYD9J49,English,any advances,midnight,purple,lightblue,Player C made shots,half-half-half,half-half-half,15,7,3101,NA
A3NSX46VYD9J49,English,any advances,purple,wheat,lightblue,Player B made shots,half-half-all,half-half-all,14,7,2995,NA
A3NSX46VYD9J49,English,any advances,purple,lightorange,lavender,Every player hit all of his shots,none-none-half,none-half-none,17,1,3039,NA
A3NSX46VYD9J49,English,any advances,darkorange,grey,lightblue,All the players will advance,none-none-none,none-none-none,16,1,3081,NA
A3NSX46VYD9J49,English,any advances,wheat,lavender,pink,Every player hit some of his shots,none-half-all,none-all-half,19,1,2990,NA
A3NSX46VYD9J49,English,any advances,tan,midnight,lightorange,Player B will advance,all-all-all,all-all-all,18,7,3848,NA
A3NSX46VYD9J49,English,any advances,pink,yellow,purple,Player A was the star player of the round,most-none-all,most-none-all,-1,1,10346,yes
A3NSX46VYD9J49,English,any advances,lightorange,grey,midnight,Player C messed up,all-all-none,all-all-none,-3,7,13240,yes
A3NSX46VYD9J49,English,any advances,yellow,lightorange,midnight,Player B will advance to the next round,all-few-none,all-few-none,-2,6,14056,yes
A3B5UFOTPU1TQJ,English,any advances,grey,brown,purple,Player C will be pleased,none-half-half,half-half-none,24,1,3962,NA
A3B5UFOTPU1TQJ,English,any advances,lightblue,lightorange,yellow,Player B will be pleased,all-all-all,all-all-all,25,7,2885,NA
A3B5UFOTPU1TQJ,English,any advances,lightorange,wheat,seafoam,Exactly one player hit some of his shots,none-half-half,half-none-half,26,2,7734,NA
A3B5UFOTPU1TQJ,English,any advances,wheat,grey,yellow,All of the players will advance,all-all-all,all-all-all,27,7,3127,NA
A3B5UFOTPU1TQJ,English,any advances,pink,brown,lightorange,Every player hit some of his shots,half-half-all,half-all-half,20,7,3906,NA
A3B5UFOTPU1TQJ,English,any advances,seafoam,pink,yellow,Every player hit none of his shots,all-all-all,all-all-all,21,1,5358,NA
A3B5UFOTPU1TQJ,English,any advances,darkorange,royalblue,brown,Exactly one player hit none of his shots,none-half-half,half-half-none,22,7,6747,NA
A3B5UFOTPU1TQJ,English,any advances,grey,purple,royalblue,Player B will be disappointed,none-half-half,half-none-half,23,7,3016,NA
A3B5UFOTPU1TQJ,English,any advances,pink,tan,lightorange,Three players will advance,half-all-all,half-all-all,28,7,3839,NA
A3B5UFOTPU1TQJ,English,any advances,darkorange,midnight,purple,Most of the players will advance,all-all-all,all-all-all,1,7,4636,NA
A3B5UFOTPU1TQJ,English,any advances,yellow,purple,pink,Player A will advance,none-none-all,none-none-all,0,1,8421,NA
A3B5UFOTPU1TQJ,English,any advances,seafoam,tan,lightorange,At least one player will advance,none-all-all,all-none-all,3,7,4934,NA
A3B5UFOTPU1TQJ,English,any advances,tan,lavender,royalblue,No player hit none of his shots,none-half-half,half-none-half,2,1,22803,NA
A3B5UFOTPU1TQJ,English,any advances,grey,midnight,brown,All the players will advance,none-half-half,none-half-half,5,1,5943,NA
A3B5UFOTPU1TQJ,English,any advances,seafoam,royalblue,wheat,Player C made shots,none-half-half,none-half-half,4,5,6151,NA
A3B5UFOTPU1TQJ,English,any advances,darkorange,grey,seafoam,Player A made shots,half-half-half,half-half-half,7,6,4527,NA
A3B5UFOTPU1TQJ,English,any advances,lightorange,lavender,midnight,Player A will be pleased,half-all-all,half-all-all,6,2,6238,NA
A3B5UFOTPU1TQJ,English,any advances,purple,darkorange,lightorange,No player hit all of his shots,half-half-all,all-half-half,9,1,8806,NA
A3B5UFOTPU1TQJ,English,any advances,tan,darkorange,seafoam,Every player hit all of his shots,none-half-half,half-none-half,8,1,4559,NA
A3B5UFOTPU1TQJ,English,any advances,purple,royalblue,seafoam,None of the players will advance,none-none-half,none-half-none,11,1,8669,NA
A3B5UFOTPU1TQJ,English,any advances,lavender,midnight,purple,Player A will be disappointed,none-half-all,all-none-half,10,1,4658,NA
A3B5UFOTPU1TQJ,English,any advances,darkorange,lavender,midnight,Player C will be disappointed,half-half-all,half-half-all,13,1,4009,NA
A3B5UFOTPU1TQJ,English,any advances,lavender,purple,darkorange,Player B will advance,half-half-half,half-half-half,12,7,3261,NA
A3B5UFOTPU1TQJ,English,any advances,lightblue,purple,yellow,Player C will advance,none-none-half,none-half-none,15,1,3129,NA
A3B5UFOTPU1TQJ,English,any advances,brown,lightblue,darkorange,Two players will advance,none-half-half,none-half-half,14,7,4046,NA
A3B5UFOTPU1TQJ,English,any advances,pink,wheat,lavender,No player hit some of his shots,none-none-all,none-all-none,17,1,8528,NA
A3B5UFOTPU1TQJ,English,any advances,lavender,grey,lightorange,Exactly one player hit all of his shots,all-all-all,all-all-all,16,1,13206,NA
A3B5UFOTPU1TQJ,English,any advances,seafoam,lightblue,pink,One player will advance,none-all-all,all-none-all,19,7,5125,NA
A3B5UFOTPU1TQJ,English,any advances,brown,wheat,midnight,Player B made shots,half-half-half,half-half-half,18,7,8224,NA
A3B5UFOTPU1TQJ,English,any advances,lightorange,midnight,wheat,Player A was the star player of the round,most-none-all,most-none-all,-1,1,7954,yes
A3B5UFOTPU1TQJ,English,any advances,wheat,darkorange,midnight,Player C messed up,all-all-none,all-all-none,-3,7,14273,yes
A3B5UFOTPU1TQJ,English,any advances,seafoam,wheat,yellow,Player B will advance to the next round,all-few-none,all-few-none,-2,7,48208,no
A2DJEBINMRL8AR,English,all advances,purple,tan,royalblue,No player hit some of his shots,none-half-half,half-none-half,24,1,6685,NA
A2DJEBINMRL8AR,English,all advances,lavender,grey,royalblue,One player will advance,half-all-all,all-half-all,25,1,3715,NA
A2DJEBINMRL8AR,English,all advances,yellow,grey,lightblue,No player hit all of his shots,none-half-all,all-half-none,26,1,5984,NA
A2DJEBINMRL8AR,English,all advances,lightorange,pink,royalblue,Player C made shots,half-all-all,all-all-half,27,3,4604,NA
A2DJEBINMRL8AR,English,all advances,pink,tan,yellow,None of the players will advance,none-none-all,none-all-none,20,1,2677,NA
A2DJEBINMRL8AR,English,all advances,yellow,midnight,wheat,Player A made shots,half-all-all,all-all-half,21,7,2875,NA
A2DJEBINMRL8AR,English,all advances,lightorange,yellow,seafoam,No player hit none of his shots,none-half-all,none-half-all,22,1,6272,NA
A2DJEBINMRL8AR,English,all advances,lightorange,lavender,yellow,Player B will be pleased,half-all-all,half-all-all,23,7,2634,NA
A2DJEBINMRL8AR,English,all advances,royalblue,seafoam,tan,Player C will be disappointed,half-half-all,half-all-half,28,1,2250,NA
A2DJEBINMRL8AR,English,all advances,lightorange,wheat,midnight,Every player hit some of his shots,none-all-all,all-all-none,1,1,5470,NA
A2DJEBINMRL8AR,English,all advances,lightblue,grey,darkorange,Two players will advance,half-all-all,all-half-all,0,7,6144,NA
A2DJEBINMRL8AR,English,all advances,darkorange,midnight,lightorange,Every player hit all of his shots,none-half-all,all-half-none,3,1,4285,NA
A2DJEBINMRL8AR,English,all advances,yellow,purple,grey,All of the players will advance,half-half-all,all-half-half,2,1,3387,NA
A2DJEBINMRL8AR,English,all advances,midnight,pink,grey,Exactly one player hit none of his shots,half-all-all,all-half-all,5,7,7525,NA
A2DJEBINMRL8AR,English,all advances,seafoam,midnight,lightorange,Exactly one player hit all of his shots,none-none-none,none-none-none,4,1,4296,NA
A2DJEBINMRL8AR,English,all advances,brown,pink,tan,Player B made shots,none-half-half,half-none-half,7,1,3507,NA
A2DJEBINMRL8AR,English,all advances,brown,tan,yellow,Player B will advance,none-none-all,none-none-all,6,1,4208,NA
A2DJEBINMRL8AR,English,all advances,lavender,grey,wheat,At least one player will advance,none-none-half,half-none-none,9,1,2903,NA
A2DJEBINMRL8AR,English,all advances,royalblue,purple,lightorange,Three players will advance,half-half-all,half-half-all,8,1,6610,NA
A2DJEBINMRL8AR,English,all advances,purple,grey,seafoam,Exactly one player hit some of his shots,half-all-all,half-all-all,11,1,6199,NA
A2DJEBINMRL8AR,English,all advances,yellow,lavender,lightblue,Every player hit none of his shots,none-none-half,none-half-none,10,1,8175,NA
A2DJEBINMRL8AR,English,all advances,seafoam,wheat,yellow,Player C will advance,none-half-half,half-half-none,13,1,2921,NA
A2DJEBINMRL8AR,English,all advances,purple,wheat,royalblue,Player A will be disappointed,none-none-none,none-none-none,12,7,4081,NA
A2DJEBINMRL8AR,English,all advances,royalblue,tan,midnight,Player C will be pleased,half-half-all,half-all-half,15,1,3513,NA
A2DJEBINMRL8AR,English,all advances,lightblue,seafoam,grey,Most of the players will advance,half-all-all,all-half-all,14,7,3485,NA
A2DJEBINMRL8AR,English,all advances,lightorange,lightblue,yellow,All the players will advance,half-all-all,all-all-half,17,1,3492,NA
A2DJEBINMRL8AR,English,all advances,lavender,pink,darkorange,Player A will be pleased,none-none-none,none-none-none,16,1,3426,NA
A2DJEBINMRL8AR,English,all advances,pink,yellow,midnight,Player A will advance,none-half-half,half-none-half,19,1,2394,NA
A2DJEBINMRL8AR,English,all advances,lightorange,purple,lavender,Player B will be disappointed,half-half-all,half-all-half,18,1,2237,NA
A2DJEBINMRL8AR,English,all advances,purple,lavender,brown,Player A was the star player of the round,most-none-all,most-none-all,-1,1,7537,yes
A2DJEBINMRL8AR,English,all advances,seafoam,darkorange,wheat,Player C messed up,all-all-none,all-all-none,-3,6,24495,no
A2DJEBINMRL8AR,English,all advances,purple,seafoam,brown,Player B will advance to the next round,all-few-none,all-few-none,-2,1,13638,yes
A27HCT87T16N65,Spanish,all advances,lavender,grey,tan,Player C will be pleased,none-none-none,none-none-none,24,2,4194,NA
A27HCT87T16N65,Spanish,all advances,darkorange,grey,lightorange,Three players will advance,none-none-half,none-half-none,25,1,6568,NA
A27HCT87T16N65,Spanish,all advances,darkorange,midnight,lightblue,Most of the players will advance,none-half-half,half-half-none,26,1,4691,NA
A27HCT87T16N65,Spanish,all advances,lightorange,yellow,midnight,Every player hit none of his shots,none-none-all,none-none-all,27,2,8978,NA
A27HCT87T16N65,Spanish,all advances,lightblue,tan,purple,Player B will advance,none-none-all,none-none-all,20,1,4035,NA
A27HCT87T16N65,Spanish,all advances,tan,lightblue,darkorange,Player B will be disappointed,none-half-half,half-none-half,21,7,6852,NA
A27HCT87T16N65,Spanish,all advances,pink,royalblue,wheat,Player A made shots,half-half-half,half-half-half,22,6,5442,NA
A27HCT87T16N65,Spanish,all advances,grey,royalblue,yellow,Player C will be disappointed,none-none-all,none-all-none,23,7,7731,NA
A27HCT87T16N65,Spanish,all advances,darkorange,royalblue,purple,Player C will advance,none-half-all,all-none-half,28,1,3747,NA
A27HCT87T16N65,Spanish,all advances,pink,lightblue,wheat,No player hit some of his shots,none-all-all,none-all-all,1,1,27798,NA
A27HCT87T16N65,Spanish,all advances,grey,yellow,wheat,No player hit all of his shots,none-all-all,none-all-all,0,1,13788,NA
A27HCT87T16N65,Spanish,all advances,purple,pink,lightorange,All of the players will advance,none-none-none,none-none-none,3,1,9970,NA
A27HCT87T16N65,Spanish,all advances,seafoam,grey,tan,No player hit none of his shots,half-all-all,all-half-all,2,1,22793,NA
A27HCT87T16N65,Spanish,all advances,wheat,lavender,brown,Every player hit some of his shots,none-none-none,none-none-none,5,1,9075,NA
A27HCT87T16N65,Spanish,all advances,lavender,lightorange,seafoam,Player B will be pleased,all-all-all,all-all-all,4,4,8778,NA
A27HCT87T16N65,Spanish,all advances,royalblue,tan,wheat,None of the players will advance,none-none-none,none-none-none,7,7,7670,NA
A27HCT87T16N65,Spanish,all advances,royalblue,seafoam,tan,All the players will advance,all-all-all,all-all-all,6,7,3388,NA
A27HCT87T16N65,Spanish,all advances,wheat,lightorange,lavender,Two players will advance,none-none-half,half-none-none,9,1,4362,NA
A27HCT87T16N65,Spanish,all advances,lightorange,lightblue,midnight,Player A will advance,none-none-all,none-all-none,8,1,4347,NA
A27HCT87T16N65,Spanish,all advances,purple,brown,lightblue,Player A will be disappointed,none-all-all,all-all-none,11,1,7186,NA
A27HCT87T16N65,Spanish,all advances,yellow,pink,lightblue,Every player hit all of his shots,half-all-all,half-all-all,10,2,15640,NA
A27HCT87T16N65,Spanish,all advances,pink,lavender,darkorange,Exactly one player hit none of his shots,half-half-half,half-half-half,13,1,15798,NA
A27HCT87T16N65,Spanish,all advances,pink,darkorange,yellow,Player C made shots,none-half-all,half-none-all,12,5,5113,NA
A27HCT87T16N65,Spanish,all advances,brown,lightblue,yellow,Exactly one player hit some of his shots,none-none-half,none-half-none,15,5,5955,NA
A27HCT87T16N65,Spanish,all advances,pink,seafoam,wheat,Player B made shots,half-half-all,all-half-half,14,5,9421,NA
A27HCT87T16N65,Spanish,all advances,lightorange,brown,darkorange,Player A will be pleased,none-half-half,half-none-half,17,5,5915,NA
A27HCT87T16N65,Spanish,all advances,pink,brown,purple,One player will advance,none-none-none,none-none-none,16,1,4456,NA
A27HCT87T16N65,Spanish,all advances,tan,pink,lightblue,At least one player will advance,half-all-all,all-all-half,19,7,4563,NA
A27HCT87T16N65,Spanish,all advances,pink,purple,midnight,Exactly one player hit all of his shots,half-half-half,half-half-half,18,1,5482,NA
A27HCT87T16N65,Spanish,all advances,brown,yellow,wheat,Player A was the star player of the round,most-none-all,most-none-all,-1,1,9599,yes
A27HCT87T16N65,Spanish,all advances,tan,midnight,pink,Player C messed up,all-all-none,all-all-none,-3,7,30734,yes
A27HCT87T16N65,Spanish,all advances,pink,lightblue,yellow,Player B will advance to the next round,all-few-none,all-few-none,-2,1,14552,yes
