workerid,language,subjectCondition,player1color,player2color,player3color,sentence,condition,conditionOrder,trialnum,response,rt,trainingCorrect
ATPPB00USEHLF,English,only,purple,pink,tan,Player C made no shots,all-all-all,all-all-all,24,1,2661,NA
ATPPB00USEHLF,English,only,purple,lavender,darkorange,Player A tied with Player C,none-none-none,none-none-none,25,7,2798,NA
ATPPB00USEHLF,English,only,lightblue,purple,royalblue,Every player hit all of his shots,none-all-all,none-all-all,26,1,3181,NA
ATPPB00USEHLF,English,only,brown,midnight,lightorange,Every player hit none of his shots,none-all-all,all-none-all,27,1,5803,NA
ATPPB00USEHLF,English,only,seafoam,midnight,pink,We have a clear winner,none-half-half,none-half-half,20,1,3025,NA
ATPPB00USEHLF,English,only,purple,wheat,lightblue,Exactly one player hit none of his shots,half-half-all,half-all-half,21,1,4459,NA
ATPPB00USEHLF,English,only,darkorange,tan,lightorange,Most of the players missed shots,none-none-none,none-none-none,22,7,3011,NA
ATPPB00USEHLF,English,only,lightorange,royalblue,wheat,Player A tied with Player B,half-half-all,half-half-all,23,7,4502,NA
ATPPB00USEHLF,English,only,yellow,lightorange,brown,Player A placed second,none-half-half,half-none-half,28,2,5263,NA
ATPPB00USEHLF,English,only,brown,grey,seafoam,No player hit only some of his shots,none-none-none,none-none-none,1,2,13876,NA
ATPPB00USEHLF,English,only,brown,pink,yellow,Player B made no shots,all-all-all,all-all-all,0,1,6716,NA
ATPPB00USEHLF,English,only,seafoam,lightblue,grey,Player A shot perfectly,all-all-all,all-all-all,3,7,3676,NA
ATPPB00USEHLF,English,only,brown,grey,lavender,Player B placed second,none-half-all,half-none-all,2,1,7245,NA
ATPPB00USEHLF,English,only,yellow,seafoam,tan,No player hit none of his shots,none-all-all,all-all-none,5,1,8272,NA
ATPPB00USEHLF,English,only,lightorange,royalblue,yellow,Player A made no shots,none-none-none,none-none-none,4,7,3900,NA
ATPPB00USEHLF,English,only,yellow,lightblue,brown,Player C placed second,none-all-all,all-none-all,7,2,10474,NA
ATPPB00USEHLF,English,only,seafoam,purple,yellow,Exactly one player hit all of his shots,all-all-all,all-all-all,6,1,4622,NA
ATPPB00USEHLF,English,only,lavender,brown,lightblue,Player B shot perfectly,none-half-half,half-none-half,9,1,3306,NA
ATPPB00USEHLF,English,only,lightblue,brown,yellow,Someone did better than Player B,none-all-all,none-all-all,8,1,4679,NA
ATPPB00USEHLF,English,only,purple,pink,lightblue,Someone did better than Player A,all-all-all,all-all-all,11,1,3741,NA
ATPPB00USEHLF,English,only,royalblue,midnight,purple,Most of the players made shots,none-half-all,all-none-half,10,6,6925,NA
ATPPB00USEHLF,English,only,tan,pink,yellow,Player B tied with Player C,half-half-all,all-half-half,13,7,5196,NA
ATPPB00USEHLF,English,only,yellow,midnight,lightblue,We have a clear loser,all-all-all,all-all-all,12,1,4405,NA
ATPPB00USEHLF,English,only,lavender,seafoam,darkorange,Player C shot perfectly,none-half-all,half-all-none,15,1,3531,NA
ATPPB00USEHLF,English,only,yellow,lavender,grey,Every player hit only some of his shots,none-none-none,none-none-none,14,1,6784,NA
ATPPB00USEHLF,English,only,wheat,grey,seafoam,No player hit all of his shots,half-half-all,half-half-all,17,1,4764,NA
ATPPB00USEHLF,English,only,grey,lightblue,yellow,Someone did better than Player C,none-none-all,none-all-none,16,7,3565,NA
ATPPB00USEHLF,English,only,midnight,lightorange,brown,All the players are tied,half-half-half,half-half-half,19,7,3684,NA
ATPPB00USEHLF,English,only,wheat,purple,grey,Exactly one player hit only some of his shots,none-half-all,none-all-half,18,7,9017,NA
ATPPB00USEHLF,English,only,royalblue,brown,lavender,Player A was the star player of the round,most-none-all,most-none-all,-1,1,9265,yes
ATPPB00USEHLF,English,only,tan,lightorange,midnight,Player A made none of his baskets,all-none-few,all-none-few,-3,1,15619,yes
ATPPB00USEHLF,English,only,brown,pink,darkorange,Player C messed up,all-all-none,all-all-none,-2,6,11490,yes
A1SVK98CS3XZPB,English,focus,darkorange,yellow,brown,All the players are tied,none-none-none,none-none-none,24,7,2432,NA
A1SVK98CS3XZPB,English,focus,lightblue,wheat,darkorange,No player hit <b>ALL</b> of his shots,none-none-half,none-half-none,25,7,4886,NA
A1SVK98CS3XZPB,English,focus,purple,midnight,lightblue,Player A tied with Player C,half-half-half,half-half-half,26,7,5959,NA
A1SVK98CS3XZPB,English,focus,wheat,lightorange,royalblue,Player A tied with Player B,half-all-all,all-all-half,27,7,3284,NA
A1SVK98CS3XZPB,English,focus,wheat,midnight,royalblue,Player A placed second,none-none-half,none-half-none,20,1,4426,NA
A1SVK98CS3XZPB,English,focus,lightorange,yellow,lightblue,Exactly one player hit <b>NONE</b> of his shots,none-none-all,none-none-all,21,1,7531,NA
A1SVK98CS3XZPB,English,focus,seafoam,midnight,darkorange,Someone did better than Player A,none-none-none,none-none-none,22,1,3909,NA
A1SVK98CS3XZPB,English,focus,yellow,lightorange,darkorange,Player C placed second,none-half-all,half-all-none,23,1,3420,NA
A1SVK98CS3XZPB,English,focus,pink,royalblue,lightblue,Player B made no shots,none-all-all,none-all-all,28,1,2858,NA
A1SVK98CS3XZPB,English,focus,grey,darkorange,lavender,We have a clear winner,half-all-all,all-half-all,1,1,4375,NA
A1SVK98CS3XZPB,English,focus,royalblue,wheat,midnight,Player C made no shots,half-all-all,all-all-half,0,1,5025,NA
A1SVK98CS3XZPB,English,focus,darkorange,brown,grey,Most of the players missed shots,none-none-all,none-all-none,3,7,4846,NA
A1SVK98CS3XZPB,English,focus,pink,lavender,darkorange,No player hit <b>NONE</b> of his shots,none-none-all,none-none-all,2,1,5828,NA
A1SVK98CS3XZPB,English,focus,seafoam,royalblue,pink,Exactly one player hit <b>ALL</b> of his shots,none-none-none,none-none-none,5,1,4534,NA
A1SVK98CS3XZPB,English,focus,midnight,purple,lavender,We have a clear loser,half-half-half,half-half-half,4,1,3853,NA
A1SVK98CS3XZPB,English,focus,brown,lightblue,lavender,Player A shot perfectly,none-half-all,all-none-half,7,7,4361,NA
A1SVK98CS3XZPB,English,focus,seafoam,darkorange,lightorange,Every player hit <b>ALL</b> of his shots,half-half-all,half-half-all,6,1,3131,NA
A1SVK98CS3XZPB,English,focus,seafoam,brown,lavender,Every player hit <b>SOME</b> of his shots,half-all-all,all-all-half,9,7,5374,NA
A1SVK98CS3XZPB,English,focus,grey,yellow,lightblue,No player hit <b>SOME</b> of his shots,none-none-half,none-half-none,8,1,6548,NA
A1SVK98CS3XZPB,English,focus,lightblue,seafoam,royalblue,Exactly one player hit <b>SOME</b> of his shots,half-all-all,half-all-all,11,1,6037,NA
A1SVK98CS3XZPB,English,focus,lavender,pink,lightblue,Someone did better than Player C,none-half-all,all-half-none,10,7,3807,NA
A1SVK98CS3XZPB,English,focus,grey,wheat,midnight,Most of the players made shots,none-half-all,all-none-half,13,7,6526,NA
A1SVK98CS3XZPB,English,focus,grey,tan,seafoam,Player C shot perfectly,none-all-all,all-none-all,12,7,3028,NA
A1SVK98CS3XZPB,English,focus,pink,tan,wheat,Player B tied with Player C,none-none-none,none-none-none,15,7,4291,NA
A1SVK98CS3XZPB,English,focus,royalblue,midnight,yellow,Every player hit <b>NONE</b> of his shots,none-half-half,half-half-none,14,1,3999,NA
A1SVK98CS3XZPB,English,focus,yellow,pink,tan,Player A made no shots,half-all-all,half-all-all,17,1,3746,NA
A1SVK98CS3XZPB,English,focus,darkorange,midnight,royalblue,Player B shot perfectly,none-none-all,none-all-none,16,7,3201,NA
A1SVK98CS3XZPB,English,focus,grey,yellow,tan,Player B placed second,none-half-all,half-none-all,19,1,3832,NA
A1SVK98CS3XZPB,English,focus,pink,tan,royalblue,Someone did better than Player B,none-none-half,half-none-none,18,7,3809,NA
A1SVK98CS3XZPB,English,focus,darkorange,seafoam,lightorange,Player A was the star player of the round,most-none-all,most-none-all,-1,1,17658,no
A1SVK98CS3XZPB,English,focus,darkorange,midnight,royalblue,Player A made none of his baskets,all-none-few,all-none-few,-3,1,17054,yes
A1SVK98CS3XZPB,English,focus,midnight,purple,lightblue,Player C messed up,all-all-none,all-all-none,-2,7,7776,yes
A2ZBYVQLDUZOV7,english,focus,lightorange,darkorange,purple,Player B made no shots,half-all-all,all-all-half,24,1,5332,NA
A2ZBYVQLDUZOV7,english,focus,darkorange,brown,seafoam,Someone did better than Player C,none-half-half,none-half-half,25,1,4814,NA
A2ZBYVQLDUZOV7,english,focus,lightblue,tan,royalblue,Every player hit <b>ALL</b> of his shots,none-none-all,none-all-none,26,1,4934,NA
A2ZBYVQLDUZOV7,english,focus,purple,midnight,grey,No player hit <b>SOME</b> of his shots,none-none-all,all-none-none,27,1,5607,NA
A2ZBYVQLDUZOV7,english,focus,royalblue,brown,grey,Player B placed second,none-none-half,none-half-none,20,1,5679,NA
A2ZBYVQLDUZOV7,english,focus,grey,wheat,brown,We have a clear loser,none-all-all,all-none-all,21,7,5446,NA
A2ZBYVQLDUZOV7,english,focus,midnight,royalblue,tan,Player C placed second,none-all-all,all-all-none,22,1,5966,NA
A2ZBYVQLDUZOV7,english,focus,lavender,seafoam,yellow,Player B shot perfectly,half-half-half,half-half-half,23,1,5247,NA
A2ZBYVQLDUZOV7,english,focus,pink,midnight,wheat,No player hit <b>NONE</b> of his shots,none-none-half,none-none-half,28,1,3533,NA
A2ZBYVQLDUZOV7,english,focus,lightblue,purple,tan,Player A placed second,all-all-all,all-all-all,1,3,20452,NA
A2ZBYVQLDUZOV7,english,focus,lightblue,tan,pink,Player A made no shots,half-half-half,half-half-half,0,1,7376,NA
A2ZBYVQLDUZOV7,english,focus,midnight,lavender,brown,Player C shot perfectly,none-half-half,half-none-half,3,1,6965,NA
A2ZBYVQLDUZOV7,english,focus,brown,lightorange,seafoam,We have a clear winner,none-half-all,half-none-all,2,7,5006,NA
A2ZBYVQLDUZOV7,english,focus,seafoam,lightblue,yellow,Every player hit <b>SOME</b> of his shots,none-none-all,none-all-none,5,1,5071,NA
A2ZBYVQLDUZOV7,english,focus,wheat,seafoam,lightorange,Most of the players made shots,none-all-all,all-all-none,4,1,5511,NA
A2ZBYVQLDUZOV7,english,focus,purple,lightorange,tan,No player hit <b>ALL</b> of his shots,none-all-all,all-all-none,7,1,20775,NA
A2ZBYVQLDUZOV7,english,focus,darkorange,wheat,yellow,Someone did better than Player A,none-none-none,none-none-none,6,1,10187,NA
A2ZBYVQLDUZOV7,english,focus,lavender,yellow,darkorange,Player A tied with Player B,half-all-all,all-half-all,9,1,5879,NA
A2ZBYVQLDUZOV7,english,focus,pink,wheat,royalblue,Exactly one player hit <b>SOME</b> of his shots,none-half-all,all-half-none,8,1,22214,NA
A2ZBYVQLDUZOV7,english,focus,lightblue,darkorange,seafoam,Player A tied with Player C,all-all-all,all-all-all,11,7,5584,NA
A2ZBYVQLDUZOV7,english,focus,seafoam,pink,lightorange,All the players are tied,none-half-all,none-all-half,10,1,5134,NA
A2ZBYVQLDUZOV7,english,focus,grey,midnight,lavender,Every player hit <b>NONE</b> of his shots,none-none-none,none-none-none,13,7,4854,NA
A2ZBYVQLDUZOV7,english,focus,darkorange,midnight,purple,Most of the players missed shots,half-half-half,half-half-half,12,7,4702,NA
A2ZBYVQLDUZOV7,english,focus,lightblue,midnight,purple,Exactly one player hit <b>ALL</b> of his shots,half-half-all,half-half-all,15,7,10853,NA
A2ZBYVQLDUZOV7,english,focus,midnight,lightorange,brown,Player A shot perfectly,none-none-all,none-none-all,14,1,6493,NA
A2ZBYVQLDUZOV7,english,focus,darkorange,tan,yellow,Player C made no shots,none-none-all,none-all-none,17,7,5663,NA
A2ZBYVQLDUZOV7,english,focus,lightblue,darkorange,midnight,Exactly one player hit <b>NONE</b> of his shots,half-all-all,all-half-all,16,1,4870,NA
A2ZBYVQLDUZOV7,english,focus,lightorange,lightblue,pink,Someone did better than Player B,none-half-half,none-half-half,19,1,6918,NA
A2ZBYVQLDUZOV7,english,focus,midnight,royalblue,tan,Player B tied with Player C,half-half-all,all-half-half,18,7,4918,NA
A2ZBYVQLDUZOV7,english,focus,wheat,yellow,darkorange,Player A was the star player of the round,most-none-all,most-none-all,-1,1,11101,yes
A2ZBYVQLDUZOV7,english,focus,yellow,grey,midnight,Player A made none of his baskets,all-none-few,all-none-few,-3,1,12364,yes
A2ZBYVQLDUZOV7,english,focus,wheat,yellow,midnight,Player C messed up,all-all-none,all-all-none,-2,7,7051,yes
A6ZAKE3FP8YKY,English,focus,darkorange,seafoam,grey,Exactly one player hit <b>ALL</b> of his shots,none-half-all,all-none-half,24,7,9277,NA
A6ZAKE3FP8YKY,English,focus,lightblue,yellow,grey,Player A tied with Player C,none-half-half,none-half-half,25,1,6388,NA
A6ZAKE3FP8YKY,English,focus,midnight,pink,brown,Most of the players made shots,none-half-all,half-all-none,26,7,4950,NA
A6ZAKE3FP8YKY,English,focus,brown,pink,tan,Player B placed second,none-all-all,all-none-all,27,7,6652,NA
A6ZAKE3FP8YKY,English,focus,midnight,lavender,seafoam,Player A made no shots,all-all-all,all-all-all,20,1,3638,NA
A6ZAKE3FP8YKY,English,focus,royalblue,tan,yellow,Player A shot perfectly,half-half-half,half-half-half,21,1,7758,NA
A6ZAKE3FP8YKY,English,focus,lightblue,wheat,midnight,Player C made no shots,none-none-half,none-half-none,22,7,2623,NA
A6ZAKE3FP8YKY,English,focus,brown,tan,yellow,Every player hit <b>ALL</b> of his shots,none-none-half,none-none-half,23,1,9851,NA
A6ZAKE3FP8YKY,English,focus,lavender,wheat,seafoam,Exactly one player hit <b>NONE</b> of his shots,none-half-all,half-none-all,28,7,5167,NA
A6ZAKE3FP8YKY,English,focus,lavender,darkorange,purple,We have a clear winner,half-all-all,all-all-half,1,1,5764,NA
A6ZAKE3FP8YKY,English,focus,seafoam,darkorange,pink,Player A placed second,none-all-all,all-none-all,0,4,8506,NA
A6ZAKE3FP8YKY,English,focus,yellow,brown,darkorange,Player B tied with Player C,none-half-half,half-half-none,3,1,5309,NA
A6ZAKE3FP8YKY,English,focus,brown,lavender,tan,No player hit <b>ALL</b> of his shots,none-none-half,none-none-half,2,7,6500,NA
A6ZAKE3FP8YKY,English,focus,purple,lightorange,midnight,Player B shot perfectly,none-half-all,half-none-all,5,1,3271,NA
A6ZAKE3FP8YKY,English,focus,lightorange,brown,seafoam,No player hit <b>SOME</b> of his shots,none-none-none,none-none-none,4,7,9922,NA
A6ZAKE3FP8YKY,English,focus,lightorange,yellow,purple,We have a clear loser,none-none-none,none-none-none,7,1,4333,NA
A6ZAKE3FP8YKY,English,focus,purple,grey,seafoam,All the players are tied,none-none-half,none-none-half,6,1,3892,NA
A6ZAKE3FP8YKY,English,focus,lightorange,yellow,royalblue,Player A tied with Player B,none-none-none,none-none-none,9,5,5434,NA
A6ZAKE3FP8YKY,English,focus,brown,lightorange,grey,Every player hit <b>NONE</b> of his shots,half-half-half,half-half-half,8,1,3991,NA
A6ZAKE3FP8YKY,English,focus,midnight,lightblue,royalblue,Exactly one player hit <b>SOME</b> of his shots,none-all-all,all-none-all,11,1,5795,NA
A6ZAKE3FP8YKY,English,focus,purple,brown,yellow,Someone did better than Player B,none-half-half,half-half-none,10,1,5344,NA
A6ZAKE3FP8YKY,English,focus,seafoam,pink,lightblue,Someone did better than Player C,half-all-all,half-all-all,13,1,5622,NA
A6ZAKE3FP8YKY,English,focus,midnight,wheat,lavender,Player C shot perfectly,none-half-half,none-half-half,12,1,2860,NA
A6ZAKE3FP8YKY,English,focus,yellow,grey,wheat,No player hit <b>NONE</b> of his shots,none-none-none,none-none-none,15,1,5885,NA
A6ZAKE3FP8YKY,English,focus,purple,brown,grey,Most of the players missed shots,half-half-all,all-half-half,14,6,4253,NA
A6ZAKE3FP8YKY,English,focus,lavender,brown,yellow,Someone did better than Player A,half-half-all,half-half-all,17,7,3237,NA
A6ZAKE3FP8YKY,English,focus,lightorange,wheat,darkorange,Every player hit <b>SOME</b> of his shots,half-all-all,all-half-all,16,7,3679,NA
A6ZAKE3FP8YKY,English,focus,purple,darkorange,tan,Player B made no shots,none-half-all,half-none-all,19,7,3492,NA
A6ZAKE3FP8YKY,English,focus,yellow,tan,purple,Player C placed second,half-all-all,all-half-all,18,3,7309,NA
A6ZAKE3FP8YKY,English,focus,pink,brown,midnight,Player A was the star player of the round,most-none-all,most-none-all,-1,1,6744,yes
A6ZAKE3FP8YKY,English,focus,lavender,darkorange,yellow,Player A made none of his baskets,all-none-few,all-none-few,-3,1,9567,yes
A6ZAKE3FP8YKY,English,focus,pink,purple,royalblue,Player C messed up,all-all-none,all-all-none,-2,7,6560,yes
AAT1C3DBIYJRX,English,only,grey,midnight,brown,Someone did better than Player B,none-all-all,all-all-none,24,1,2635,NA
AAT1C3DBIYJRX,English,only,midnight,tan,pink,No player hit all of his shots,none-none-none,none-none-none,25,5,4328,NA
AAT1C3DBIYJRX,English,only,grey,pink,royalblue,Player B shot perfectly,none-all-all,none-all-all,26,7,2699,NA
AAT1C3DBIYJRX,English,only,seafoam,lightblue,lightorange,Most of the players missed shots,none-none-half,half-none-none,27,6,4872,NA
AAT1C3DBIYJRX,English,only,seafoam,darkorange,lightorange,Player C made no shots,half-half-half,half-half-half,20,1,2435,NA
AAT1C3DBIYJRX,English,only,lavender,wheat,midnight,We have a clear winner,half-half-half,half-half-half,21,1,3466,NA
AAT1C3DBIYJRX,English,only,lightorange,grey,wheat,No player hit none of his shots,half-half-all,all-half-half,22,7,4076,NA
AAT1C3DBIYJRX,English,only,pink,purple,tan,Every player hit none of his shots,all-all-all,all-all-all,23,1,4172,NA
AAT1C3DBIYJRX,English,only,lightblue,tan,yellow,Exactly one player hit all of his shots,half-all-all,all-all-half,28,1,2248,NA
AAT1C3DBIYJRX,English,only,seafoam,wheat,brown,Player A shot perfectly,none-none-none,none-none-none,1,1,3140,NA
AAT1C3DBIYJRX,English,only,tan,brown,purple,Player C placed second,none-half-all,half-all-none,0,1,7834,NA
AAT1C3DBIYJRX,English,only,brown,purple,lightblue,All the players are tied,none-half-half,none-half-half,3,1,2498,NA
AAT1C3DBIYJRX,English,only,lavender,royalblue,seafoam,No player hit only some of his shots,none-half-all,half-none-all,2,6,15121,NA
AAT1C3DBIYJRX,English,only,lavender,tan,seafoam,Exactly one player hit only some of his shots,half-half-all,half-all-half,5,1,4186,NA
AAT1C3DBIYJRX,English,only,royalblue,midnight,grey,Every player hit all of his shots,half-all-all,all-half-all,4,1,3106,NA
AAT1C3DBIYJRX,English,only,grey,lavender,darkorange,Player A tied with Player C,half-half-half,half-half-half,7,6,5889,NA
AAT1C3DBIYJRX,English,only,darkorange,seafoam,wheat,Someone did better than Player A,half-half-all,half-half-all,6,7,2607,NA
AAT1C3DBIYJRX,English,only,yellow,purple,grey,We have a clear loser,none-all-all,all-all-none,9,7,3357,NA
AAT1C3DBIYJRX,English,only,grey,midnight,royalblue,Player B tied with Player C,none-none-half,half-none-none,8,7,3638,NA
AAT1C3DBIYJRX,English,only,grey,lightblue,darkorange,Most of the players made shots,none-half-all,half-all-none,11,7,6998,NA
AAT1C3DBIYJRX,English,only,brown,royalblue,darkorange,Player B made no shots,none-half-half,half-none-half,10,7,2701,NA
AAT1C3DBIYJRX,English,only,royalblue,yellow,lavender,Player A made no shots,none-all-all,all-all-none,13,1,1858,NA
AAT1C3DBIYJRX,English,only,royalblue,pink,wheat,Player C shot perfectly,none-all-all,all-all-none,12,1,2060,NA
AAT1C3DBIYJRX,English,only,royalblue,grey,lightorange,Player B placed second,half-half-all,all-half-half,15,5,3606,NA
AAT1C3DBIYJRX,English,only,royalblue,midnight,grey,Exactly one player hit none of his shots,none-none-half,half-none-none,14,1,3201,NA
AAT1C3DBIYJRX,English,only,lightblue,pink,wheat,Player A placed second,half-half-half,half-half-half,17,1,4763,NA
AAT1C3DBIYJRX,English,only,purple,royalblue,darkorange,Every player hit only some of his shots,none-none-half,none-none-half,16,1,3153,NA
AAT1C3DBIYJRX,English,only,midnight,lightblue,wheat,Someone did better than Player C,none-none-half,none-half-none,19,6,4186,NA
AAT1C3DBIYJRX,English,only,darkorange,purple,royalblue,Player A tied with Player B,none-half-all,all-none-half,18,1,2700,NA
AAT1C3DBIYJRX,English,only,lavender,pink,royalblue,Player A was the star player of the round,most-none-all,most-none-all,-1,1,13341,yes
AAT1C3DBIYJRX,English,only,lightblue,lightorange,brown,Player A made none of his baskets,all-none-few,all-none-few,-3,1,10168,yes
AAT1C3DBIYJRX,English,only,lightorange,royalblue,tan,Player C messed up,all-all-none,all-all-none,-2,6,6139,yes
AZLBLEDRP6UYM,English,focus,darkorange,yellow,lavender,Player A placed second,none-half-half,half-half-none,24,4,9910,NA
AZLBLEDRP6UYM,English,focus,wheat,midnight,darkorange,Every player hit <b>ALL</b> of his shots,half-half-all,all-half-half,25,1,3722,NA
AZLBLEDRP6UYM,English,focus,tan,seafoam,lavender,Player B tied with Player C,none-none-all,all-none-none,26,7,2500,NA
AZLBLEDRP6UYM,English,focus,yellow,midnight,grey,Most of the players made shots,none-none-all,none-all-none,27,1,2478,NA
AZLBLEDRP6UYM,English,focus,lavender,yellow,darkorange,Player C shot perfectly,all-all-all,all-all-all,20,7,2621,NA
AZLBLEDRP6UYM,English,focus,purple,tan,brown,Every player hit <b>SOME</b> of his shots,none-all-all,all-none-all,21,1,3632,NA
AZLBLEDRP6UYM,English,focus,purple,pink,darkorange,Player A made no shots,none-half-half,half-half-none,22,1,2478,NA
AZLBLEDRP6UYM,English,focus,lightblue,brown,purple,Player B made no shots,none-all-all,all-none-all,23,7,2520,NA
AZLBLEDRP6UYM,English,focus,grey,brown,lightblue,No player hit <b>NONE</b> of his shots,none-half-all,none-half-all,28,1,2832,NA
AZLBLEDRP6UYM,English,focus,lavender,pink,royalblue,Someone did better than Player A,none-none-none,none-none-none,1,1,4793,NA
AZLBLEDRP6UYM,English,focus,brown,pink,wheat,No player hit <b>SOME</b> of his shots,none-none-none,none-none-none,0,7,5666,NA
AZLBLEDRP6UYM,English,focus,seafoam,lavender,purple,No player hit <b>ALL</b> of his shots,half-half-half,half-half-half,3,7,3254,NA
AZLBLEDRP6UYM,English,focus,seafoam,wheat,pink,Player C made no shots,none-none-all,all-none-none,2,7,3210,NA
AZLBLEDRP6UYM,English,focus,yellow,wheat,purple,Player C placed second,all-all-all,all-all-all,5,1,3583,NA
AZLBLEDRP6UYM,English,focus,lightblue,pink,midnight,Someone did better than Player B,none-all-all,none-all-all,4,1,4916,NA
AZLBLEDRP6UYM,English,focus,pink,brown,purple,Player A tied with Player C,none-half-all,none-all-half,7,1,3217,NA
AZLBLEDRP6UYM,English,focus,purple,lavender,lightorange,Every player hit <b>NONE</b> of his shots,half-half-half,half-half-half,6,1,3322,NA
AZLBLEDRP6UYM,English,focus,midnight,darkorange,brown,Exactly one player hit <b>NONE</b> of his shots,none-all-all,all-none-all,9,7,4087,NA
AZLBLEDRP6UYM,English,focus,pink,midnight,royalblue,Someone did better than Player C,all-all-all,all-all-all,8,1,3079,NA
AZLBLEDRP6UYM,English,focus,midnight,purple,royalblue,Most of the players missed shots,none-half-half,half-none-half,11,7,4852,NA
AZLBLEDRP6UYM,English,focus,tan,brown,darkorange,Exactly one player hit <b>SOME</b> of his shots,none-half-all,all-half-none,10,7,4072,NA
AZLBLEDRP6UYM,English,focus,purple,seafoam,lightblue,Exactly one player hit <b>ALL</b> of his shots,half-half-all,half-all-half,13,7,5000,NA
AZLBLEDRP6UYM,English,focus,purple,yellow,seafoam,Player A tied with Player B,half-all-all,all-half-all,12,1,4046,NA
AZLBLEDRP6UYM,English,focus,lightorange,brown,royalblue,All the players are tied,none-all-all,all-all-none,15,1,2911,NA
AZLBLEDRP6UYM,English,focus,lavender,wheat,tan,Player B shot perfectly,none-none-none,none-none-none,14,1,2541,NA
AZLBLEDRP6UYM,English,focus,lightorange,royalblue,lavender,Player A shot perfectly,none-half-half,half-none-half,17,1,1850,NA
AZLBLEDRP6UYM,English,focus,seafoam,grey,midnight,We have a clear loser,none-none-all,none-all-none,16,1,3444,NA
AZLBLEDRP6UYM,English,focus,seafoam,royalblue,grey,We have a clear winner,none-none-half,half-none-none,19,7,2737,NA
AZLBLEDRP6UYM,English,focus,midnight,seafoam,royalblue,Player B placed second,none-half-all,all-none-half,18,1,2362,NA
AZLBLEDRP6UYM,English,focus,brown,wheat,royalblue,Player A was the star player of the round,most-none-all,most-none-all,-1,1,6724,yes
AZLBLEDRP6UYM,English,focus,tan,pink,purple,Player A made none of his baskets,all-none-few,all-none-few,-3,1,17991,yes
AZLBLEDRP6UYM,English,focus,royalblue,darkorange,lightorange,Player C messed up,all-all-none,all-all-none,-2,7,5640,yes
A2ZPPK5U8M3U2Z,English,focus,seafoam,yellow,wheat,Someone did better than Player B,all-all-all,all-all-all,24,1,4053,NA
A2ZPPK5U8M3U2Z,English,focus,tan,purple,lavender,No player hit <b>SOME</b> of his shots,none-none-half,none-none-half,25,1,3689,NA
A2ZPPK5U8M3U2Z,English,focus,midnight,tan,purple,Every player hit <b>NONE</b> of his shots,half-half-half,half-half-half,26,1,3063,NA
A2ZPPK5U8M3U2Z,English,focus,purple,yellow,darkorange,No player hit <b>NONE</b> of his shots,half-half-all,half-all-half,27,6,10448,NA
A2ZPPK5U8M3U2Z,English,focus,darkorange,lavender,midnight,Someone did better than Player C,none-none-half,half-none-none,20,7,4532,NA
A2ZPPK5U8M3U2Z,English,focus,lavender,wheat,tan,No player hit <b>ALL</b> of his shots,half-half-half,half-half-half,21,7,3622,NA
A2ZPPK5U8M3U2Z,English,focus,lavender,darkorange,royalblue,Player A placed second,none-all-all,all-none-all,22,1,3731,NA
A2ZPPK5U8M3U2Z,English,focus,purple,royalblue,midnight,Exactly one player hit <b>SOME</b> of his shots,none-none-none,none-none-none,23,1,5072,NA
A2ZPPK5U8M3U2Z,English,focus,pink,midnight,lightorange,Someone did better than Player A,none-all-all,all-all-none,28,1,5017,NA
A2ZPPK5U8M3U2Z,English,focus,pink,brown,wheat,Player B made no shots,none-none-none,none-none-none,1,6,3608,NA
A2ZPPK5U8M3U2Z,English,focus,midnight,lightblue,purple,All the players are tied,none-none-none,none-none-none,0,6,5493,NA
A2ZPPK5U8M3U2Z,English,focus,yellow,lightblue,grey,Exactly one player hit <b>NONE</b> of his shots,none-none-half,none-half-none,3,1,5012,NA
A2ZPPK5U8M3U2Z,English,focus,purple,lavender,lightblue,Exactly one player hit <b>ALL</b> of his shots,none-half-all,half-all-none,2,6,5021,NA
A2ZPPK5U8M3U2Z,English,focus,lightblue,brown,purple,Player A shot perfectly,half-half-all,all-half-half,5,6,4028,NA
A2ZPPK5U8M3U2Z,English,focus,pink,lightorange,purple,Player B shot perfectly,none-none-half,half-none-none,4,1,5036,NA
A2ZPPK5U8M3U2Z,English,focus,lightorange,lightblue,yellow,We have a clear winner,none-half-half,none-half-half,7,1,5253,NA
A2ZPPK5U8M3U2Z,English,focus,yellow,lavender,seafoam,Player A tied with Player B,none-half-half,half-half-none,6,6,3692,NA
A2ZPPK5U8M3U2Z,English,focus,seafoam,lavender,purple,Player A made no shots,none-all-all,none-all-all,9,7,3445,NA
A2ZPPK5U8M3U2Z,English,focus,lavender,brown,darkorange,Player C made no shots,none-none-half,none-half-none,8,7,4302,NA
A2ZPPK5U8M3U2Z,English,focus,tan,lightblue,darkorange,Player A tied with Player C,all-all-all,all-all-all,11,4,6415,NA
A2ZPPK5U8M3U2Z,English,focus,yellow,lightblue,tan,We have a clear loser,none-none-half,none-none-half,10,1,4016,NA
A2ZPPK5U8M3U2Z,English,focus,tan,darkorange,pink,Player C shot perfectly,none-none-all,none-none-all,13,7,3489,NA
A2ZPPK5U8M3U2Z,English,focus,lavender,lightorange,seafoam,Every player hit <b>ALL</b> of his shots,none-half-all,half-none-all,12,1,3486,NA
A2ZPPK5U8M3U2Z,English,focus,yellow,lavender,purple,Player B tied with Player C,none-none-half,none-half-none,15,1,3646,NA
A2ZPPK5U8M3U2Z,English,focus,midnight,seafoam,lavender,Most of the players made shots,none-half-all,all-none-half,14,5,7191,NA
A2ZPPK5U8M3U2Z,English,focus,lavender,seafoam,darkorange,Player B placed second,none-all-all,all-all-none,17,1,5005,NA
A2ZPPK5U8M3U2Z,English,focus,yellow,seafoam,darkorange,Every player hit <b>SOME</b> of his shots,half-all-all,half-all-all,16,3,7303,NA
A2ZPPK5U8M3U2Z,English,focus,grey,seafoam,lavender,Player C placed second,none-none-none,none-none-none,19,1,2828,NA
A2ZPPK5U8M3U2Z,English,focus,darkorange,lightorange,midnight,Most of the players missed shots,none-half-half,half-none-half,18,4,9776,NA
A2ZPPK5U8M3U2Z,English,focus,tan,royalblue,darkorange,Player A was the star player of the round,most-none-all,most-none-all,-1,1,7951,yes
A2ZPPK5U8M3U2Z,English,focus,seafoam,lightorange,brown,Player A made none of his baskets,all-none-few,all-none-few,-3,1,12883,yes
A2ZPPK5U8M3U2Z,English,focus,seafoam,pink,darkorange,Player C messed up,all-all-none,all-all-none,-2,6,7312,yes
ACWSGVO8SSAWP,English,only,royalblue,purple,tan,Most of the players missed shots,none-half-all,none-all-half,24,3,4293,NA
ACWSGVO8SSAWP,English,only,purple,darkorange,royalblue,We have a clear winner,half-half-all,all-half-half,25,7,4755,NA
ACWSGVO8SSAWP,English,only,seafoam,lavender,lightblue,Player C shot perfectly,none-half-half,none-half-half,26,1,4126,NA
ACWSGVO8SSAWP,English,only,wheat,midnight,purple,Exactly one player hit all of his shots,half-all-all,all-all-half,27,1,4599,NA
ACWSGVO8SSAWP,English,only,tan,midnight,lightorange,Player A placed second,none-all-all,none-all-all,20,1,4044,NA
ACWSGVO8SSAWP,English,only,brown,lightorange,lavender,Player C placed second,none-half-all,half-all-none,21,1,6621,NA
ACWSGVO8SSAWP,English,only,brown,midnight,seafoam,Player A tied with Player C,all-all-all,all-all-all,22,6,3991,NA
ACWSGVO8SSAWP,English,only,lightorange,purple,wheat,Player A made no shots,half-half-all,all-half-half,23,1,2883,NA
ACWSGVO8SSAWP,English,only,midnight,darkorange,wheat,Player B placed second,none-all-all,none-all-all,28,2,4211,NA
ACWSGVO8SSAWP,English,only,lavender,purple,darkorange,No player hit none of his shots,half-half-all,half-half-all,1,2,16568,NA
ACWSGVO8SSAWP,English,only,brown,wheat,midnight,Player A tied with Player B,none-none-none,none-none-none,0,4,18631,NA
ACWSGVO8SSAWP,English,only,lightorange,brown,grey,Player B made no shots,half-half-half,half-half-half,3,1,6127,NA
ACWSGVO8SSAWP,English,only,midnight,tan,seafoam,Most of the players made shots,none-all-all,all-none-all,2,6,8438,NA
ACWSGVO8SSAWP,English,only,lightorange,darkorange,purple,All the players are tied,half-half-half,half-half-half,5,7,5068,NA
ACWSGVO8SSAWP,English,only,seafoam,purple,wheat,Exactly one player hit none of his shots,none-half-all,none-all-half,4,7,6909,NA
ACWSGVO8SSAWP,English,only,pink,yellow,grey,Every player hit all of his shots,all-all-all,all-all-all,7,7,5115,NA
ACWSGVO8SSAWP,English,only,yellow,lightorange,seafoam,We have a clear loser,none-half-half,half-half-none,6,7,5181,NA
ACWSGVO8SSAWP,English,only,royalblue,lavender,pink,No player hit only some of his shots,none-all-all,all-all-none,9,7,8319,NA
ACWSGVO8SSAWP,English,only,wheat,lavender,brown,Every player hit only some of his shots,none-all-all,none-all-all,8,1,12898,NA
ACWSGVO8SSAWP,English,only,darkorange,purple,lightorange,Someone did better than Player B,half-half-all,all-half-half,11,7,6099,NA
ACWSGVO8SSAWP,English,only,grey,seafoam,wheat,Player B shot perfectly,half-all-all,half-all-all,10,7,5080,NA
ACWSGVO8SSAWP,English,only,pink,grey,yellow,Someone did better than Player A,none-half-half,half-half-none,13,2,10314,NA
ACWSGVO8SSAWP,English,only,lightblue,lavender,seafoam,Player C made no shots,none-none-none,none-none-none,12,6,5632,NA
ACWSGVO8SSAWP,English,only,midnight,grey,purple,Someone did better than Player C,none-none-none,none-none-none,15,1,7594,NA
ACWSGVO8SSAWP,English,only,tan,darkorange,brown,Exactly one player hit only some of his shots,none-all-all,none-all-all,14,2,4196,NA
ACWSGVO8SSAWP,English,only,midnight,lightblue,darkorange,Every player hit none of his shots,all-all-all,all-all-all,17,1,27767,NA
ACWSGVO8SSAWP,English,only,lightblue,midnight,pink,No player hit all of his shots,none-all-all,all-all-none,16,1,3818,NA
ACWSGVO8SSAWP,English,only,royalblue,lavender,seafoam,Player A shot perfectly,none-none-half,half-none-none,19,1,4133,NA
ACWSGVO8SSAWP,English,only,wheat,darkorange,purple,Player B tied with Player C,none-all-all,all-all-none,18,1,21044,NA
ACWSGVO8SSAWP,English,only,wheat,lavender,lightblue,Player A was the star player of the round,most-none-all,most-none-all,-1,2,13825,yes
ACWSGVO8SSAWP,English,only,purple,pink,grey,Player A made none of his baskets,all-none-few,all-none-few,-3,1,20190,yes
ACWSGVO8SSAWP,English,only,lightblue,wheat,yellow,Player C messed up,all-all-none,all-all-none,-2,6,16310,no
ARFV302JOUOF,english,only,midnight,lavender,seafoam,Most of the players missed shots,all-all-all,all-all-all,24,1,3343,NA
ARFV302JOUOF,english,only,purple,midnight,pink,Someone did better than Player C,half-all-all,all-half-all,25,1,4602,NA
ARFV302JOUOF,english,only,midnight,grey,brown,Player B made no shots,none-half-half,half-half-none,26,1,2727,NA
ARFV302JOUOF,english,only,midnight,tan,lavender,Player A shot perfectly,none-none-none,none-none-none,27,1,2628,NA
ARFV302JOUOF,english,only,purple,lightblue,royalblue,Someone did better than Player A,none-none-none,none-none-none,20,1,4469,NA
ARFV302JOUOF,english,only,brown,wheat,yellow,Exactly one player hit only some of his shots,all-all-all,all-all-all,21,1,4289,NA
ARFV302JOUOF,english,only,lavender,tan,royalblue,Player B tied with Player C,none-half-half,half-half-none,22,1,3518,NA
ARFV302JOUOF,english,only,midnight,seafoam,darkorange,Exactly one player hit all of his shots,none-none-all,none-none-all,23,7,6485,NA
ARFV302JOUOF,english,only,seafoam,midnight,lavender,We have a clear winner,none-half-all,all-none-half,28,7,3409,NA
ARFV302JOUOF,english,only,royalblue,pink,tan,Most of the players made shots,none-half-all,all-none-half,1,4,8908,NA
ARFV302JOUOF,english,only,lavender,darkorange,tan,Player B placed second,all-all-all,all-all-all,0,1,9008,NA
ARFV302JOUOF,english,only,tan,royalblue,grey,Player A made no shots,half-half-half,half-half-half,3,1,5612,NA
ARFV302JOUOF,english,only,lavender,lightblue,yellow,Player A tied with Player B,none-none-none,none-none-none,2,7,5740,NA
ARFV302JOUOF,english,only,royalblue,seafoam,brown,Every player hit none of his shots,none-none-half,half-none-none,5,1,4173,NA
ARFV302JOUOF,english,only,darkorange,midnight,grey,Exactly one player hit none of his shots,none-half-half,half-half-none,4,7,5405,NA
ARFV302JOUOF,english,only,grey,brown,tan,Player B shot perfectly,none-none-all,none-none-all,7,1,4323,NA
ARFV302JOUOF,english,only,yellow,grey,midnight,We have a clear loser,none-half-half,half-none-half,6,7,3952,NA
ARFV302JOUOF,english,only,lavender,seafoam,midnight,Someone did better than Player B,none-none-none,none-none-none,9,1,6948,NA
ARFV302JOUOF,english,only,lightorange,midnight,purple,Every player hit all of his shots,half-half-all,half-all-half,8,1,4666,NA
ARFV302JOUOF,english,only,lightblue,royalblue,lightorange,No player hit all of his shots,half-half-half,half-half-half,11,7,3623,NA
ARFV302JOUOF,english,only,darkorange,grey,lightorange,Every player hit only some of his shots,none-none-all,all-none-none,10,1,5293,NA
ARFV302JOUOF,english,only,brown,darkorange,seafoam,Player A tied with Player C,none-half-all,all-half-none,13,1,3498,NA
ARFV302JOUOF,english,only,wheat,lightblue,lightorange,No player hit none of his shots,none-all-all,none-all-all,12,1,8297,NA
ARFV302JOUOF,english,only,lavender,midnight,grey,Player C placed second,none-half-half,half-none-half,15,1,8891,NA
ARFV302JOUOF,english,only,lightorange,yellow,pink,Player C shot perfectly,none-half-all,half-none-all,14,7,4282,NA
ARFV302JOUOF,english,only,pink,darkorange,seafoam,Player C made no shots,none-half-half,none-half-half,17,1,3529,NA
ARFV302JOUOF,english,only,midnight,seafoam,wheat,Player A placed second,none-half-all,all-none-half,16,1,3794,NA
ARFV302JOUOF,english,only,midnight,brown,grey,No player hit only some of his shots,none-none-half,none-half-none,19,1,4363,NA
ARFV302JOUOF,english,only,royalblue,lightorange,lavender,All the players are tied,none-half-all,none-half-all,18,1,3049,NA
ARFV302JOUOF,english,only,lightblue,midnight,brown,Player A was the star player of the round,most-none-all,most-none-all,-1,1,12346,no
ARFV302JOUOF,english,only,brown,lavender,seafoam,Player A made none of his baskets,all-none-few,all-none-few,-3,1,12339,yes
ARFV302JOUOF,english,only,tan,purple,seafoam,Player C messed up,all-all-none,all-all-none,-2,7,8320,yes
A2E1JK9OKUC98E,English,focus,purple,lavender,grey,Every player hit <b>ALL</b> of his shots,half-half-all,half-half-all,24,1,3452,NA
A2E1JK9OKUC98E,English,focus,lightorange,royalblue,seafoam,Player B made no shots,all-all-all,all-all-all,25,1,2191,NA
A2E1JK9OKUC98E,English,focus,darkorange,midnight,royalblue,Player A placed second,none-all-all,none-all-all,26,3,8591,NA
A2E1JK9OKUC98E,English,focus,brown,yellow,midnight,Someone did better than Player A,half-all-all,all-all-half,27,1,6372,NA
A2E1JK9OKUC98E,English,focus,lavender,seafoam,pink,Most of the players made shots,none-half-half,none-half-half,20,7,11435,NA
A2E1JK9OKUC98E,English,focus,lightblue,midnight,seafoam,All the players are tied,none-none-half,none-none-half,21,1,2435,NA
A2E1JK9OKUC98E,English,focus,tan,royalblue,seafoam,Player A tied with Player C,half-half-half,half-half-half,22,7,2956,NA
A2E1JK9OKUC98E,English,focus,wheat,seafoam,lavender,Player A shot perfectly,half-half-all,half-half-all,23,1,2203,NA
A2E1JK9OKUC98E,English,focus,grey,tan,royalblue,Most of the players missed shots,none-half-half,none-half-half,28,7,4597,NA
A2E1JK9OKUC98E,English,focus,darkorange,lightorange,tan,Exactly one player hit <b>NONE</b> of his shots,none-none-half,none-half-none,1,1,5275,NA
A2E1JK9OKUC98E,English,focus,brown,lightorange,yellow,No player hit <b>ALL</b> of his shots,half-half-half,half-half-half,0,7,7627,NA
A2E1JK9OKUC98E,English,focus,wheat,lightblue,tan,Player C made no shots,half-all-all,all-all-half,3,2,6111,NA
A2E1JK9OKUC98E,English,focus,wheat,pink,midnight,Player C shot perfectly,half-half-all,half-all-half,2,2,6687,NA
A2E1JK9OKUC98E,English,focus,wheat,midnight,yellow,We have a clear loser,half-all-all,half-all-all,5,5,9893,NA
A2E1JK9OKUC98E,English,focus,yellow,purple,pink,Every player hit <b>SOME</b> of his shots,none-none-half,none-half-none,4,1,4180,NA
A2E1JK9OKUC98E,English,focus,brown,seafoam,lightorange,Exactly one player hit <b>SOME</b> of his shots,none-none-none,none-none-none,7,1,5314,NA
A2E1JK9OKUC98E,English,focus,royalblue,lavender,darkorange,Someone did better than Player C,all-all-all,all-all-all,6,1,9771,NA
A2E1JK9OKUC98E,English,focus,yellow,lightorange,seafoam,Player A made no shots,none-none-none,none-none-none,9,7,5184,NA
A2E1JK9OKUC98E,English,focus,lightblue,wheat,yellow,Player C placed second,none-none-half,none-half-none,8,2,5459,NA
A2E1JK9OKUC98E,English,focus,darkorange,wheat,purple,Every player hit <b>NONE</b> of his shots,half-half-all,half-all-half,11,1,6243,NA
A2E1JK9OKUC98E,English,focus,seafoam,lavender,tan,Player B shot perfectly,none-none-none,none-none-none,10,1,3826,NA
A2E1JK9OKUC98E,English,focus,royalblue,brown,tan,No player hit <b>NONE</b> of his shots,half-half-all,all-half-half,13,7,11774,NA
A2E1JK9OKUC98E,English,focus,royalblue,grey,tan,Exactly one player hit <b>ALL</b> of his shots,none-none-all,all-none-none,12,7,4155,NA
A2E1JK9OKUC98E,English,focus,tan,midnight,purple,Player A tied with Player B,none-none-all,none-all-none,15,1,4531,NA
A2E1JK9OKUC98E,English,focus,royalblue,lightblue,midnight,We have a clear winner,all-all-all,all-all-all,14,1,2634,NA
A2E1JK9OKUC98E,English,focus,darkorange,yellow,seafoam,Player B tied with Player C,all-all-all,all-all-all,17,7,3839,NA
A2E1JK9OKUC98E,English,focus,lightblue,brown,darkorange,Someone did better than Player B,half-half-all,half-all-half,16,1,4227,NA
A2E1JK9OKUC98E,English,focus,lightblue,lightorange,seafoam,Player B placed second,none-none-none,none-none-none,19,1,7889,NA
A2E1JK9OKUC98E,English,focus,tan,midnight,lavender,No player hit <b>SOME</b> of his shots,none-none-all,none-all-none,18,1,9579,NA
A2E1JK9OKUC98E,English,focus,seafoam,midnight,lightblue,Player A was the star player of the round,most-none-all,most-none-all,-1,2,13373,yes
A2E1JK9OKUC98E,English,focus,lightblue,darkorange,yellow,Player A made none of his baskets,all-none-few,all-none-few,-3,1,11094,yes
A2E1JK9OKUC98E,English,focus,yellow,purple,royalblue,Player C messed up,all-all-none,all-all-none,-2,7,5307,yes
A73ITJ4GZGQBI,english,only,grey,wheat,seafoam,Player C shot perfectly,none-none-half,none-half-none,24,1,3048,NA
A73ITJ4GZGQBI,english,only,darkorange,grey,lightblue,No player hit none of his shots,none-none-half,none-none-half,25,1,3570,NA
A73ITJ4GZGQBI,english,only,royalblue,pink,purple,No player hit all of his shots,half-all-all,all-half-all,26,1,7311,NA
A73ITJ4GZGQBI,english,only,royalblue,seafoam,midnight,Exactly one player hit none of his shots,all-all-all,all-all-all,27,1,4971,NA
A73ITJ4GZGQBI,english,only,lavender,grey,pink,All the players are tied,none-none-all,none-all-none,20,1,2611,NA
A73ITJ4GZGQBI,english,only,lavender,lightorange,midnight,Every player hit all of his shots,none-half-all,half-all-none,21,1,6728,NA
A73ITJ4GZGQBI,english,only,seafoam,royalblue,lightblue,Exactly one player hit all of his shots,half-half-all,half-all-half,22,7,4188,NA
A73ITJ4GZGQBI,english,only,tan,purple,yellow,Player B shot perfectly,none-half-all,none-half-all,23,1,3112,NA
A73ITJ4GZGQBI,english,only,lightblue,purple,darkorange,We have a clear winner,half-all-all,all-half-all,28,7,2662,NA
A73ITJ4GZGQBI,english,only,midnight,yellow,lightblue,Player B tied with Player C,half-all-all,half-all-all,1,7,4719,NA
A73ITJ4GZGQBI,english,only,darkorange,lightorange,brown,Most of the players missed shots,all-all-all,all-all-all,0,1,6258,NA
A73ITJ4GZGQBI,english,only,lightorange,darkorange,midnight,Player B made no shots,none-none-all,all-none-none,3,7,5346,NA
A73ITJ4GZGQBI,english,only,royalblue,lavender,midnight,Player C placed second,none-none-none,none-none-none,2,1,6524,NA
A73ITJ4GZGQBI,english,only,brown,seafoam,purple,Player A made no shots,none-none-half,none-none-half,5,7,4165,NA
A73ITJ4GZGQBI,english,only,brown,lightorange,purple,Player A placed second,none-all-all,all-all-none,4,1,7831,NA
A73ITJ4GZGQBI,english,only,pink,midnight,yellow,Someone did better than Player A,none-all-all,none-all-all,7,7,8041,NA
A73ITJ4GZGQBI,english,only,purple,royalblue,seafoam,Every player hit none of his shots,none-all-all,all-all-none,6,1,5366,NA
A73ITJ4GZGQBI,english,only,tan,midnight,wheat,Player C made no shots,half-half-half,half-half-half,9,1,3816,NA
A73ITJ4GZGQBI,english,only,wheat,pink,royalblue,Exactly one player hit only some of his shots,all-all-all,all-all-all,8,1,5362,NA
A73ITJ4GZGQBI,english,only,wheat,grey,brown,Someone did better than Player B,half-half-half,half-half-half,11,1,4819,NA
A73ITJ4GZGQBI,english,only,pink,lightorange,yellow,Most of the players made shots,none-none-none,none-none-none,10,1,5057,NA
A73ITJ4GZGQBI,english,only,grey,lightblue,royalblue,We have a clear loser,none-none-none,none-none-none,13,7,4632,NA
A73ITJ4GZGQBI,english,only,pink,yellow,royalblue,Someone did better than Player C,all-all-all,all-all-all,12,1,8601,NA
A73ITJ4GZGQBI,english,only,lavender,brown,purple,Player A tied with Player B,half-half-half,half-half-half,15,7,4430,NA
A73ITJ4GZGQBI,english,only,lightorange,yellow,midnight,Player B placed second,none-none-half,half-none-none,14,1,5091,NA
A73ITJ4GZGQBI,english,only,royalblue,midnight,pink,Player A shot perfectly,none-all-all,all-none-all,17,7,4340,NA
A73ITJ4GZGQBI,english,only,brown,lavender,midnight,No player hit only some of his shots,none-half-all,all-half-none,16,1,4241,NA
A73ITJ4GZGQBI,english,only,grey,wheat,royalblue,Player A tied with Player C,none-none-all,all-none-none,19,1,4516,NA
A73ITJ4GZGQBI,english,only,seafoam,lightorange,tan,Every player hit only some of his shots,half-half-all,half-all-half,18,1,5414,NA
A73ITJ4GZGQBI,english,only,lightorange,lightblue,purple,Player A was the star player of the round,most-none-all,most-none-all,-1,1,18383,no
A73ITJ4GZGQBI,english,only,lavender,brown,tan,Player A made none of his baskets,all-none-few,all-none-few,-3,1,147899,no
A73ITJ4GZGQBI,english,only,lightorange,grey,seafoam,Player C messed up,all-all-none,all-all-none,-2,7,7809,yes
A1SE65F2EN67HH,English,only,yellow,pink,grey,Exactly one player hit only some of his shots,half-half-all,half-all-half,24,1,7230,NA
A1SE65F2EN67HH,English,only,yellow,tan,lightblue,Player C placed second,all-all-all,all-all-all,25,1,5966,NA
A1SE65F2EN67HH,English,only,midnight,yellow,purple,Player A made no shots,none-half-half,half-half-none,26,1,2592,NA
A1SE65F2EN67HH,English,only,purple,darkorange,pink,All the players are tied,half-all-all,half-all-all,27,1,2391,NA
A1SE65F2EN67HH,English,only,royalblue,seafoam,purple,Exactly one player hit none of his shots,all-all-all,all-all-all,20,1,3807,NA
A1SE65F2EN67HH,English,only,seafoam,purple,yellow,Someone did better than Player C,none-none-all,none-none-all,21,1,3782,NA
A1SE65F2EN67HH,English,only,lavender,lightorange,brown,No player hit only some of his shots,none-all-all,none-all-all,22,5,4896,NA
A1SE65F2EN67HH,English,only,seafoam,tan,wheat,Player A tied with Player B,none-half-half,none-half-half,23,1,5055,NA
A1SE65F2EN67HH,English,only,tan,seafoam,pink,Every player hit none of his shots,half-all-all,half-all-all,28,1,5686,NA
A1SE65F2EN67HH,English,only,lightblue,brown,grey,Player B placed second,none-none-all,none-all-none,1,1,7781,NA
A1SE65F2EN67HH,English,only,tan,darkorange,wheat,Most of the players missed shots,none-none-half,none-half-none,0,6,6141,NA
A1SE65F2EN67HH,English,only,midnight,darkorange,royalblue,We have a clear winner,none-all-all,all-all-none,3,1,5278,NA
A1SE65F2EN67HH,English,only,midnight,lightorange,purple,Most of the players made shots,half-half-all,half-all-half,2,6,6071,NA
A1SE65F2EN67HH,English,only,grey,purple,royalblue,Player B shot perfectly,none-none-none,none-none-none,5,1,3830,NA
A1SE65F2EN67HH,English,only,midnight,wheat,tan,Player A placed second,none-all-all,all-none-all,4,4,9391,NA
A1SE65F2EN67HH,English,only,purple,grey,brown,Player A shot perfectly,none-none-all,all-none-none,7,7,4558,NA
A1SE65F2EN67HH,English,only,wheat,grey,tan,Every player hit only some of his shots,none-half-half,none-half-half,6,1,4037,NA
A1SE65F2EN67HH,English,only,pink,darkorange,lavender,Exactly one player hit all of his shots,none-none-all,all-none-none,9,7,4726,NA
A1SE65F2EN67HH,English,only,seafoam,pink,grey,No player hit all of his shots,none-all-all,all-all-none,8,1,3576,NA
A1SE65F2EN67HH,English,only,lightblue,seafoam,midnight,Every player hit all of his shots,half-all-all,all-all-half,11,1,3717,NA
A1SE65F2EN67HH,English,only,tan,darkorange,wheat,Player C shot perfectly,all-all-all,all-all-all,10,7,3663,NA
A1SE65F2EN67HH,English,only,lavender,purple,midnight,No player hit none of his shots,all-all-all,all-all-all,13,2,7968,NA
A1SE65F2EN67HH,English,only,yellow,purple,grey,Player B tied with Player C,none-all-all,all-all-none,12,1,4438,NA
A1SE65F2EN67HH,English,only,purple,yellow,royalblue,Someone did better than Player A,half-half-all,half-all-half,15,6,7872,NA
A1SE65F2EN67HH,English,only,yellow,wheat,lightorange,Player A tied with Player C,none-none-all,none-none-all,14,1,3502,NA
A1SE65F2EN67HH,English,only,royalblue,pink,darkorange,Player C made no shots,none-all-all,all-all-none,17,7,4822,NA
A1SE65F2EN67HH,English,only,grey,pink,lightorange,Player B made no shots,none-none-all,none-none-all,16,2,5182,NA
A1SE65F2EN67HH,English,only,lightorange,lavender,lightblue,We have a clear loser,none-none-half,none-none-half,19,2,4431,NA
A1SE65F2EN67HH,English,only,tan,lightblue,grey,Someone did better than Player B,half-all-all,all-half-all,18,6,5255,NA
A1SE65F2EN67HH,English,only,darkorange,seafoam,lightblue,Player A was the star player of the round,most-none-all,most-none-all,-1,1,7328,yes
A1SE65F2EN67HH,English,only,royalblue,lightorange,seafoam,Player A made none of his baskets,all-none-few,all-none-few,-3,1,29852,no
A1SE65F2EN67HH,English,only,lightblue,lightorange,royalblue,Player C messed up,all-all-none,all-all-none,-2,6,12414,yes
A1RSU0VB46LRYX,English,focus,royalblue,wheat,purple,Exactly one player hit <b>NONE</b> of his shots,half-half-all,half-all-half,24,1,3797,NA
A1RSU0VB46LRYX,English,focus,seafoam,pink,lavender,Exactly one player hit <b>SOME</b> of his shots,none-half-half,none-half-half,25,1,4966,NA
A1RSU0VB46LRYX,English,focus,lavender,grey,purple,Someone did better than Player C,none-half-half,half-half-none,26,4,3911,NA
A1RSU0VB46LRYX,English,focus,brown,lavender,purple,Player A tied with Player C,none-none-half,none-none-half,27,1,4735,NA
A1RSU0VB46LRYX,English,focus,lightorange,lavender,midnight,Every player hit <b>NONE</b> of his shots,half-half-all,half-half-all,20,1,4036,NA
A1RSU0VB46LRYX,English,focus,midnight,lavender,tan,Someone did better than Player B,none-half-half,half-none-half,21,6,5194,NA
A1RSU0VB46LRYX,English,focus,tan,lightblue,brown,Most of the players made shots,all-all-all,all-all-all,22,5,2617,NA
A1RSU0VB46LRYX,English,focus,purple,lavender,royalblue,Player C shot perfectly,none-none-half,none-none-half,23,1,2478,NA
A1RSU0VB46LRYX,English,focus,lightblue,lavender,lightorange,Player B made no shots,none-half-all,none-half-all,28,1,4740,NA
A1RSU0VB46LRYX,English,focus,darkorange,royalblue,lightblue,Player A made no shots,none-none-half,half-none-none,1,1,6295,NA
A1RSU0VB46LRYX,English,focus,lavender,grey,royalblue,Exactly one player hit <b>ALL</b> of his shots,none-all-all,all-none-all,0,1,12991,NA
A1RSU0VB46LRYX,English,focus,yellow,lightblue,grey,Player B shot perfectly,none-none-half,half-none-none,3,1,3632,NA
A1RSU0VB46LRYX,English,focus,tan,yellow,royalblue,No player hit <b>NONE</b> of his shots,none-half-all,all-half-none,2,1,7410,NA
A1RSU0VB46LRYX,English,focus,wheat,lavender,pink,Every player hit <b>SOME</b> of his shots,all-all-all,all-all-all,5,5,6141,NA
A1RSU0VB46LRYX,English,focus,lightblue,tan,darkorange,Player C placed second,half-all-all,half-all-all,4,6,7015,NA
A1RSU0VB46LRYX,English,focus,midnight,grey,royalblue,Someone did better than Player A,half-half-all,all-half-half,7,1,3847,NA
A1RSU0VB46LRYX,English,focus,midnight,tan,brown,We have a clear winner,half-all-all,all-all-half,6,2,5268,NA
A1RSU0VB46LRYX,English,focus,midnight,darkorange,wheat,Player B tied with Player C,none-none-half,half-none-none,9,7,4064,NA
A1RSU0VB46LRYX,English,focus,seafoam,yellow,royalblue,We have a clear loser,none-half-half,none-half-half,8,7,2775,NA
A1RSU0VB46LRYX,English,focus,grey,wheat,royalblue,Every player hit <b>ALL</b> of his shots,none-half-half,none-half-half,11,1,3383,NA
A1RSU0VB46LRYX,English,focus,wheat,tan,pink,Player B placed second,half-all-all,half-all-all,10,5,3969,NA
A1RSU0VB46LRYX,English,focus,tan,purple,brown,No player hit <b>SOME</b> of his shots,none-all-all,all-none-all,13,7,10831,NA
A1RSU0VB46LRYX,English,focus,seafoam,wheat,yellow,No player hit <b>ALL</b> of his shots,none-none-half,half-none-none,12,7,4297,NA
A1RSU0VB46LRYX,English,focus,grey,midnight,seafoam,All the players are tied,none-none-half,none-none-half,15,1,3488,NA
A1RSU0VB46LRYX,English,focus,lightblue,pink,wheat,Player A shot perfectly,none-none-half,half-none-none,14,1,3055,NA
A1RSU0VB46LRYX,English,focus,pink,lightorange,brown,Player C made no shots,none-all-all,all-all-none,17,7,4179,NA
A1RSU0VB46LRYX,English,focus,brown,lightorange,grey,Player A placed second,none-none-half,half-none-none,16,1,5332,NA
A1RSU0VB46LRYX,English,focus,royalblue,darkorange,brown,Most of the players missed shots,none-none-none,none-none-none,19,5,6119,NA
A1RSU0VB46LRYX,English,focus,lightorange,yellow,pink,Player A tied with Player B,none-half-all,none-all-half,18,1,3690,NA
A1RSU0VB46LRYX,English,focus,darkorange,brown,pink,Player A was the star player of the round,most-none-all,most-none-all,-1,1,10730,yes
A1RSU0VB46LRYX,English,focus,lightorange,seafoam,grey,Player A made none of his baskets,all-none-few,all-none-few,-3,1,24593,no
A1RSU0VB46LRYX,English,focus,purple,seafoam,grey,Player C messed up,all-all-none,all-all-none,-2,6,10382,no
A2K3H210ZTI3XJ,English,focus,pink,lightorange,lavender,Player A placed second,none-half-half,half-none-half,24,1,7490,NA
A2K3H210ZTI3XJ,English,focus,wheat,midnight,seafoam,No player hit <b>ALL</b> of his shots,none-none-all,all-none-none,25,1,3196,NA
A2K3H210ZTI3XJ,English,focus,lightblue,wheat,brown,Player C made no shots,none-none-none,none-none-none,26,7,4134,NA
A2K3H210ZTI3XJ,English,focus,wheat,purple,lightblue,Every player hit <b>SOME</b> of his shots,half-half-all,half-half-all,27,3,5018,NA
A2K3H210ZTI3XJ,English,focus,purple,lightorange,yellow,Player A tied with Player C,none-none-half,half-none-none,20,1,4914,NA
A2K3H210ZTI3XJ,English,focus,lightorange,lightblue,pink,Player A made no shots,half-half-half,half-half-half,21,1,2922,NA
A2K3H210ZTI3XJ,English,focus,yellow,purple,royalblue,Player B made no shots,none-none-half,none-none-half,22,7,3993,NA
A2K3H210ZTI3XJ,English,focus,lavender,lightorange,brown,Player A tied with Player B,half-all-all,half-all-all,23,1,4273,NA
A2K3H210ZTI3XJ,English,focus,lavender,lightorange,pink,Exactly one player hit <b>NONE</b> of his shots,none-none-half,none-half-none,28,1,3986,NA
A2K3H210ZTI3XJ,English,focus,brown,lightorange,seafoam,Player A shot perfectly,none-none-half,none-none-half,1,1,5217,NA
A2K3H210ZTI3XJ,English,focus,yellow,lavender,darkorange,Player C shot perfectly,none-none-half,none-half-none,0,1,4090,NA
A2K3H210ZTI3XJ,English,focus,tan,grey,purple,Someone did better than Player C,none-none-all,all-none-none,3,6,6249,NA
A2K3H210ZTI3XJ,English,focus,yellow,tan,brown,Exactly one player hit <b>SOME</b> of his shots,none-half-all,none-all-half,2,4,11274,NA
A2K3H210ZTI3XJ,English,focus,wheat,darkorange,tan,Player B shot perfectly,half-all-all,all-all-half,5,7,3290,NA
A2K3H210ZTI3XJ,English,focus,seafoam,lightorange,pink,Player C placed second,none-none-all,none-all-none,4,2,4337,NA
A2K3H210ZTI3XJ,English,focus,brown,pink,yellow,Exactly one player hit <b>ALL</b> of his shots,none-none-half,none-none-half,7,1,4786,NA
A2K3H210ZTI3XJ,English,focus,pink,darkorange,purple,No player hit <b>SOME</b> of his shots,none-none-half,none-none-half,6,1,4531,NA
A2K3H210ZTI3XJ,English,focus,lightorange,royalblue,pink,Every player hit <b>NONE</b> of his shots,none-none-none,none-none-none,9,6,5338,NA
A2K3H210ZTI3XJ,English,focus,pink,tan,purple,Player B placed second,none-none-all,none-none-all,8,2,3584,NA
A2K3H210ZTI3XJ,English,focus,grey,pink,darkorange,Someone did better than Player B,none-none-all,all-none-none,11,6,4794,NA
A2K3H210ZTI3XJ,English,focus,midnight,yellow,lavender,Every player hit <b>ALL</b> of his shots,half-half-half,half-half-half,10,1,2786,NA
A2K3H210ZTI3XJ,English,focus,royalblue,brown,grey,Someone did better than Player A,none-none-none,none-none-none,13,1,3730,NA
A2K3H210ZTI3XJ,English,focus,darkorange,seafoam,tan,We have a clear winner,all-all-all,all-all-all,12,1,4058,NA
A2K3H210ZTI3XJ,English,focus,purple,grey,brown,All the players are tied,half-half-all,half-all-half,15,1,3540,NA
A2K3H210ZTI3XJ,English,focus,brown,pink,seafoam,We have a clear loser,none-none-none,none-none-none,14,1,4530,NA
A2K3H210ZTI3XJ,English,focus,lavender,lightblue,grey,Most of the players made shots,none-half-half,half-none-half,17,7,3641,NA
A2K3H210ZTI3XJ,English,focus,darkorange,yellow,midnight,Most of the players missed shots,none-none-all,none-all-none,16,5,6772,NA
A2K3H210ZTI3XJ,English,focus,seafoam,yellow,darkorange,Player B tied with Player C,none-none-half,half-none-none,19,7,5562,NA
A2K3H210ZTI3XJ,English,focus,pink,wheat,purple,No player hit <b>NONE</b> of his shots,half-all-all,half-all-all,18,7,6328,NA
A2K3H210ZTI3XJ,English,focus,wheat,lightblue,purple,Player A was the star player of the round,most-none-all,most-none-all,-1,1,8843,yes
A2K3H210ZTI3XJ,English,focus,royalblue,lavender,midnight,Player A made none of his baskets,all-none-few,all-none-few,-3,1,12788,yes
A2K3H210ZTI3XJ,English,focus,yellow,midnight,lightblue,Player C messed up,all-all-none,all-all-none,-2,7,7677,yes
A3LZ0US3K33718,English,only,darkorange,purple,pink,Every player hit none of his shots,none-none-none,none-none-none,24,7,12284,NA
A3LZ0US3K33718,English,only,royalblue,purple,seafoam,We have a clear winner,none-all-all,none-all-all,25,5,4416,NA
A3LZ0US3K33718,English,only,lavender,grey,tan,We have a clear loser,none-half-half,half-none-half,26,7,8771,NA
A3LZ0US3K33718,English,only,lightblue,lavender,grey,Player A placed second,all-all-all,all-all-all,27,1,7563,NA
A3LZ0US3K33718,English,only,lavender,lightorange,grey,Someone did better than Player C,half-half-all,half-all-half,20,4,6908,NA
A3LZ0US3K33718,English,only,tan,pink,seafoam,Most of the players made shots,half-all-all,half-all-all,21,2,7525,NA
A3LZ0US3K33718,English,only,royalblue,pink,lightblue,Player A made no shots,none-none-half,none-none-half,22,5,9194,NA
A3LZ0US3K33718,English,only,darkorange,lavender,seafoam,All the players are tied,half-half-all,half-all-half,23,1,6556,NA
A3LZ0US3K33718,English,only,darkorange,seafoam,brown,Exactly one player hit none of his shots,none-half-all,half-none-all,28,7,8438,NA
A3LZ0US3K33718,English,only,darkorange,yellow,seafoam,Someone did better than Player B,none-none-all,none-all-none,1,1,12633,NA
A3LZ0US3K33718,English,only,grey,tan,lightblue,No player hit none of his shots,half-half-half,half-half-half,0,1,26478,NA
A3LZ0US3K33718,English,only,wheat,darkorange,pink,Every player hit all of his shots,half-half-all,all-half-half,3,1,5437,NA
A3LZ0US3K33718,English,only,lightorange,purple,tan,Player B made no shots,half-all-all,all-half-all,2,1,12747,NA
A3LZ0US3K33718,English,only,lightblue,midnight,brown,Player A tied with Player B,none-none-all,none-all-none,5,6,7364,NA
A3LZ0US3K33718,English,only,wheat,brown,lightblue,Player B placed second,none-none-all,none-none-all,4,4,9311,NA
A3LZ0US3K33718,English,only,lavender,grey,lightorange,Exactly one player hit only some of his shots,none-none-half,none-half-none,7,6,11458,NA
A3LZ0US3K33718,English,only,midnight,royalblue,purple,Player C shot perfectly,none-half-all,half-none-all,6,7,5541,NA
A3LZ0US3K33718,English,only,lightorange,brown,purple,Most of the players missed shots,none-none-half,none-half-none,9,2,10885,NA
A3LZ0US3K33718,English,only,pink,grey,wheat,Player C made no shots,half-all-all,all-all-half,8,1,5613,NA
A3LZ0US3K33718,English,only,wheat,yellow,lightblue,Every player hit only some of his shots,all-all-all,all-all-all,11,1,6499,NA
A3LZ0US3K33718,English,only,wheat,lightorange,seafoam,No player hit only some of his shots,half-half-all,half-all-half,10,2,11412,NA
A3LZ0US3K33718,English,only,royalblue,lightorange,pink,No player hit all of his shots,none-none-all,none-all-none,13,1,8767,NA
A3LZ0US3K33718,English,only,yellow,royalblue,lightblue,Someone did better than Player A,half-half-half,half-half-half,12,1,6394,NA
A3LZ0US3K33718,English,only,yellow,pink,seafoam,Player B tied with Player C,none-none-half,none-half-none,15,1,11037,NA
A3LZ0US3K33718,English,only,seafoam,lavender,purple,Exactly one player hit all of his shots,none-none-half,none-none-half,14,2,28998,NA
A3LZ0US3K33718,English,only,tan,brown,midnight,Player A tied with Player C,none-none-none,none-none-none,17,3,8070,NA
A3LZ0US3K33718,English,only,grey,yellow,lavender,Player B shot perfectly,half-half-all,all-half-half,16,1,3944,NA
A3LZ0US3K33718,English,only,yellow,purple,lightorange,Player C placed second,none-none-half,none-half-none,19,3,8571,NA
A3LZ0US3K33718,English,only,lightblue,purple,lightorange,Player A shot perfectly,none-all-all,all-all-none,18,5,7242,NA
A3LZ0US3K33718,English,only,lavender,yellow,lightorange,Player A was the star player of the round,most-none-all,most-none-all,-1,1,19487,yes
A3LZ0US3K33718,English,only,brown,lightblue,wheat,Player A made none of his baskets,all-none-few,all-none-few,-3,1,21952,yes
A3LZ0US3K33718,English,only,royalblue,pink,lightblue,Player C messed up,all-all-none,all-all-none,-2,7,8072,yes
A3B7N6J6PCOAAT,English,only,lavender,pink,seafoam,We have a clear loser,all-all-all,all-all-all,24,1,4804,NA
A3B7N6J6PCOAAT,English,only,royalblue,tan,lightorange,We have a clear winner,none-all-all,none-all-all,25,1,6355,NA
A3B7N6J6PCOAAT,English,only,wheat,lavender,purple,Every player hit all of his shots,half-half-all,half-half-all,26,1,3863,NA
A3B7N6J6PCOAAT,English,only,pink,grey,lightblue,Exactly one player hit only some of his shots,half-half-all,all-half-half,27,1,4754,NA
A3B7N6J6PCOAAT,English,only,wheat,darkorange,purple,Every player hit none of his shots,half-all-all,all-all-half,20,1,4801,NA
A3B7N6J6PCOAAT,English,only,grey,tan,seafoam,Most of the players made shots,half-all-all,all-half-all,21,5,13203,NA
A3B7N6J6PCOAAT,English,only,royalblue,brown,seafoam,Player A tied with Player C,none-half-all,none-half-all,22,1,5701,NA
A3B7N6J6PCOAAT,English,only,wheat,yellow,grey,Player B made no shots,none-none-all,all-none-none,23,7,5345,NA
A3B7N6J6PCOAAT,English,only,grey,royalblue,yellow,Player A tied with Player B,none-none-none,none-none-none,28,7,7202,NA
A3B7N6J6PCOAAT,English,only,seafoam,lightorange,yellow,Player B placed second,half-half-all,half-half-all,1,4,8383,NA
A3B7N6J6PCOAAT,English,only,grey,lavender,lightblue,Someone did better than Player B,half-half-half,half-half-half,0,1,9325,NA
A3B7N6J6PCOAAT,English,only,seafoam,darkorange,pink,Player A placed second,half-half-all,half-all-half,3,4,5913,NA
A3B7N6J6PCOAAT,English,only,brown,lightorange,lavender,Player A made no shots,all-all-all,all-all-all,2,1,7088,NA
A3B7N6J6PCOAAT,English,only,wheat,brown,midnight,Player C made no shots,half-half-all,half-all-half,5,1,7274,NA
A3B7N6J6PCOAAT,English,only,grey,pink,lavender,No player hit none of his shots,none-half-half,half-none-half,4,1,15461,NA
A3B7N6J6PCOAAT,English,only,brown,wheat,lightblue,Player B shot perfectly,half-half-half,half-half-half,7,1,4875,NA
A3B7N6J6PCOAAT,English,only,tan,seafoam,pink,Exactly one player hit all of his shots,none-all-all,all-none-all,6,1,5634,NA
A3B7N6J6PCOAAT,English,only,darkorange,brown,seafoam,Player C shot perfectly,half-half-half,half-half-half,9,1,4141,NA
A3B7N6J6PCOAAT,English,only,lightorange,midnight,pink,All the players are tied,none-none-all,none-none-all,8,1,7030,NA
A3B7N6J6PCOAAT,English,only,lightblue,tan,brown,Player C placed second,none-half-all,half-none-all,11,1,4819,NA
A3B7N6J6PCOAAT,English,only,lavender,royalblue,lightblue,Exactly one player hit none of his shots,none-half-half,half-none-half,10,7,6366,NA
A3B7N6J6PCOAAT,English,only,yellow,midnight,pink,No player hit all of his shots,none-none-half,half-none-none,13,7,6422,NA
A3B7N6J6PCOAAT,English,only,seafoam,yellow,wheat,No player hit only some of his shots,none-none-half,none-none-half,12,1,8017,NA
A3B7N6J6PCOAAT,English,only,midnight,purple,lavender,Player B tied with Player C,none-half-all,half-none-all,15,1,6422,NA
A3B7N6J6PCOAAT,English,only,lavender,tan,grey,Most of the players missed shots,half-half-half,half-half-half,14,5,9118,NA
A3B7N6J6PCOAAT,English,only,purple,tan,darkorange,Someone did better than Player C,half-half-half,half-half-half,17,1,5201,NA
A3B7N6J6PCOAAT,English,only,seafoam,wheat,darkorange,Every player hit only some of his shots,half-all-all,half-all-all,16,1,7819,NA
A3B7N6J6PCOAAT,English,only,purple,lavender,pink,Player A shot perfectly,all-all-all,all-all-all,19,7,4295,NA
A3B7N6J6PCOAAT,English,only,seafoam,darkorange,tan,Someone did better than Player A,none-none-all,none-all-none,18,7,5605,NA
A3B7N6J6PCOAAT,English,only,royalblue,darkorange,brown,Player A was the star player of the round,most-none-all,most-none-all,-1,1,12578,yes
A3B7N6J6PCOAAT,English,only,wheat,tan,grey,Player A made none of his baskets,all-none-few,all-none-few,-3,1,11968,yes
A3B7N6J6PCOAAT,English,only,yellow,grey,darkorange,Player C messed up,all-all-none,all-all-none,-2,7,7742,yes
AGMSPB6VYCCFK,English,only,lightorange,midnight,lightblue,Exactly one player hit none of his shots,none-none-half,none-none-half,24,1,5607,NA
AGMSPB6VYCCFK,English,only,grey,yellow,midnight,Every player hit all of his shots,none-half-half,half-none-half,25,1,3602,NA
AGMSPB6VYCCFK,English,only,pink,wheat,darkorange,We have a clear winner,half-half-half,half-half-half,26,1,3291,NA
AGMSPB6VYCCFK,English,only,wheat,lightblue,royalblue,Player A tied with Player C,none-half-all,half-all-none,27,1,3561,NA
AGMSPB6VYCCFK,English,only,pink,brown,royalblue,Every player hit only some of his shots,half-half-all,all-half-half,20,7,8848,NA
AGMSPB6VYCCFK,English,only,darkorange,lavender,lightblue,Player A made no shots,half-all-all,all-half-all,21,1,4704,NA
AGMSPB6VYCCFK,English,only,midnight,pink,royalblue,Player B shot perfectly,none-all-all,all-none-all,22,1,3002,NA
AGMSPB6VYCCFK,English,only,midnight,seafoam,brown,Someone did better than Player A,none-half-half,half-none-half,23,1,4964,NA
AGMSPB6VYCCFK,English,only,lightblue,royalblue,grey,Player B placed second,none-all-all,all-none-all,28,1,5770,NA
AGMSPB6VYCCFK,English,only,lightorange,brown,lightblue,Player A shot perfectly,half-half-all,half-half-all,1,1,4128,NA
AGMSPB6VYCCFK,English,only,lavender,lightorange,wheat,Player B tied with Player C,half-half-all,all-half-half,0,7,4758,NA
AGMSPB6VYCCFK,English,only,darkorange,yellow,lightblue,Player A tied with Player B,half-all-all,all-half-all,3,7,5501,NA
AGMSPB6VYCCFK,English,only,lightorange,seafoam,brown,Player A placed second,none-none-half,half-none-none,2,1,5924,NA
AGMSPB6VYCCFK,English,only,darkorange,purple,tan,All the players are tied,none-all-all,all-none-all,5,2,5895,NA
AGMSPB6VYCCFK,English,only,lightorange,royalblue,midnight,Someone did better than Player B,none-none-none,none-none-none,4,1,5134,NA
AGMSPB6VYCCFK,English,only,yellow,darkorange,tan,Player C made no shots,none-all-all,all-none-all,7,1,5144,NA
AGMSPB6VYCCFK,English,only,grey,lightorange,darkorange,No player hit all of his shots,none-none-all,none-none-all,6,1,3460,NA
AGMSPB6VYCCFK,English,only,royalblue,brown,midnight,We have a clear loser,none-half-all,all-none-half,9,7,4694,NA
AGMSPB6VYCCFK,English,only,purple,royalblue,brown,Player C shot perfectly,none-all-all,none-all-all,8,7,2920,NA
AGMSPB6VYCCFK,English,only,tan,lightorange,brown,Exactly one player hit only some of his shots,none-all-all,all-all-none,11,1,6288,NA
AGMSPB6VYCCFK,English,only,tan,purple,brown,Player C placed second,half-half-all,half-half-all,10,1,7141,NA
AGMSPB6VYCCFK,English,only,pink,brown,darkorange,No player hit none of his shots,half-all-all,all-all-half,13,5,25688,NA
AGMSPB6VYCCFK,English,only,lightblue,seafoam,yellow,Most of the players missed shots,none-half-all,half-all-none,12,6,6481,NA
AGMSPB6VYCCFK,English,only,lavender,royalblue,midnight,Player B made no shots,none-all-all,all-none-all,15,7,3848,NA
AGMSPB6VYCCFK,English,only,purple,darkorange,royalblue,Every player hit none of his shots,none-none-none,none-none-none,14,7,3555,NA
AGMSPB6VYCCFK,English,only,lightblue,yellow,darkorange,Someone did better than Player C,none-half-half,none-half-half,17,2,8429,NA
AGMSPB6VYCCFK,English,only,purple,darkorange,lightblue,No player hit only some of his shots,none-all-all,all-all-none,16,1,6111,NA
AGMSPB6VYCCFK,English,only,lavender,yellow,pink,Most of the players made shots,none-none-none,none-none-none,19,1,3106,NA
AGMSPB6VYCCFK,English,only,purple,pink,royalblue,Exactly one player hit all of his shots,none-none-all,none-none-all,18,7,4299,NA
AGMSPB6VYCCFK,English,only,purple,brown,tan,Player A was the star player of the round,most-none-all,most-none-all,-1,1,6582,yes
AGMSPB6VYCCFK,English,only,purple,tan,royalblue,Player A made none of his baskets,all-none-few,all-none-few,-3,1,13321,yes
AGMSPB6VYCCFK,English,only,tan,lavender,lightblue,Player C messed up,all-all-none,all-all-none,-2,7,10534,no
A28Q19NTTP0UIQ,English,only,lavender,lightorange,pink,No player hit all of his shots,none-none-all,none-all-none,24,1,3525,NA
A28Q19NTTP0UIQ,English,only,pink,seafoam,darkorange,Player B made no shots,all-all-all,all-all-all,25,1,3198,NA
A28Q19NTTP0UIQ,English,only,purple,lightblue,royalblue,Player B placed second,none-none-all,all-none-none,26,5,5426,NA
A28Q19NTTP0UIQ,English,only,wheat,darkorange,brown,Player C placed second,half-all-all,all-all-half,27,5,5940,NA
A28Q19NTTP0UIQ,English,only,lightorange,yellow,purple,Player A shot perfectly,all-all-all,all-all-all,20,7,3256,NA
A28Q19NTTP0UIQ,English,only,seafoam,tan,lightblue,All the players are tied,none-half-half,half-half-none,21,1,4146,NA
A28Q19NTTP0UIQ,English,only,darkorange,wheat,seafoam,Every player hit none of his shots,half-half-half,half-half-half,22,1,4576,NA
A28Q19NTTP0UIQ,English,only,brown,tan,yellow,We have a clear loser,none-none-half,none-none-half,23,3,7764,NA
A28Q19NTTP0UIQ,English,only,purple,lightblue,seafoam,Most of the players missed shots,none-none-half,none-half-none,28,5,6438,NA
A28Q19NTTP0UIQ,English,only,yellow,wheat,grey,Player C shot perfectly,none-none-half,none-none-half,1,1,3859,NA
A28Q19NTTP0UIQ,English,only,wheat,pink,royalblue,Player C made no shots,half-half-half,half-half-half,0,1,5621,NA
A28Q19NTTP0UIQ,English,only,purple,lightorange,tan,Every player hit only some of his shots,none-none-half,none-none-half,3,1,20542,NA
A28Q19NTTP0UIQ,English,only,midnight,lightorange,tan,Exactly one player hit none of his shots,none-none-all,none-all-none,2,1,10486,NA
A28Q19NTTP0UIQ,English,only,grey,yellow,lightorange,We have a clear winner,none-none-half,none-none-half,5,5,5346,NA
A28Q19NTTP0UIQ,English,only,darkorange,midnight,brown,Exactly one player hit only some of his shots,none-half-all,half-none-all,4,5,11761,NA
A28Q19NTTP0UIQ,English,only,grey,darkorange,seafoam,No player hit none of his shots,none-none-half,none-half-none,7,1,5092,NA
A28Q19NTTP0UIQ,English,only,yellow,wheat,royalblue,No player hit only some of his shots,none-none-none,none-none-none,6,1,6709,NA
A28Q19NTTP0UIQ,English,only,darkorange,lightblue,tan,Player A tied with Player C,none-none-half,half-none-none,9,1,3671,NA
A28Q19NTTP0UIQ,English,only,wheat,darkorange,purple,Player B tied with Player C,none-half-all,all-half-none,8,1,4138,NA
A28Q19NTTP0UIQ,English,only,lightorange,seafoam,midnight,Player A made no shots,all-all-all,all-all-all,11,1,4432,NA
A28Q19NTTP0UIQ,English,only,lightorange,yellow,tan,Player A tied with Player B,none-half-all,all-half-none,10,1,5344,NA
A28Q19NTTP0UIQ,English,only,brown,darkorange,tan,Someone did better than Player A,half-half-half,half-half-half,13,1,4554,NA
A28Q19NTTP0UIQ,English,only,midnight,royalblue,seafoam,Exactly one player hit all of his shots,none-all-all,all-none-all,12,1,4675,NA
A28Q19NTTP0UIQ,English,only,wheat,darkorange,seafoam,Most of the players made shots,half-half-half,half-half-half,15,6,4832,NA
A28Q19NTTP0UIQ,English,only,lightorange,lavender,yellow,Player B shot perfectly,none-none-all,all-none-none,14,1,3668,NA
A28Q19NTTP0UIQ,English,only,seafoam,pink,yellow,Every player hit all of his shots,none-half-all,all-none-half,17,1,3513,NA
A28Q19NTTP0UIQ,English,only,royalblue,grey,midnight,Player A placed second,half-half-half,half-half-half,16,2,6482,NA
A28Q19NTTP0UIQ,English,only,midnight,royalblue,purple,Someone did better than Player B,none-none-none,none-none-none,19,1,4256,NA
A28Q19NTTP0UIQ,English,only,pink,lightorange,tan,Someone did better than Player C,half-all-all,all-half-all,18,1,5861,NA
A28Q19NTTP0UIQ,English,only,yellow,lightblue,purple,Player A was the star player of the round,most-none-all,most-none-all,-1,1,9366,yes
A28Q19NTTP0UIQ,English,only,brown,grey,seafoam,Player A made none of his baskets,all-none-few,all-none-few,-3,1,22052,no
A28Q19NTTP0UIQ,English,only,lavender,grey,lightorange,Player C messed up,all-all-none,all-all-none,-2,6,10591,yes
A3KLJMLE93GQ4N,English,focus,tan,purple,royalblue,Player C placed second,half-half-all,all-half-half,24,5,3368,NA
A3KLJMLE93GQ4N,English,focus,tan,lightorange,lightblue,Someone did better than Player B,none-half-half,none-half-half,25,2,5861,NA
A3KLJMLE93GQ4N,English,focus,yellow,lightblue,lightorange,Player B made no shots,none-half-half,half-half-none,26,1,2741,NA
A3KLJMLE93GQ4N,English,focus,seafoam,pink,lavender,We have a clear loser,none-none-all,none-none-all,27,1,3403,NA
A3KLJMLE93GQ4N,English,focus,lightblue,brown,purple,Player A made no shots,none-none-all,none-all-none,20,7,3606,NA
A3KLJMLE93GQ4N,English,focus,yellow,purple,royalblue,All the players are tied,none-none-none,none-none-none,21,7,2855,NA
A3KLJMLE93GQ4N,English,focus,royalblue,lavender,pink,Player B placed second,none-half-all,half-none-all,22,1,4709,NA
A3KLJMLE93GQ4N,English,focus,brown,seafoam,royalblue,No player hit <b>SOME</b> of his shots,none-none-half,none-half-none,23,1,3204,NA
A3KLJMLE93GQ4N,English,focus,brown,grey,wheat,Every player hit <b>NONE</b> of his shots,none-none-half,half-none-none,28,1,8312,NA
A3KLJMLE93GQ4N,English,focus,brown,grey,lightblue,Player A tied with Player C,none-none-all,none-all-none,1,7,8069,NA
A3KLJMLE93GQ4N,English,focus,tan,lightblue,seafoam,Player C made no shots,none-all-all,all-none-all,0,1,6487,NA
A3KLJMLE93GQ4N,English,focus,seafoam,royalblue,grey,Player A tied with Player B,none-half-all,none-half-all,3,1,19092,NA
A3KLJMLE93GQ4N,English,focus,wheat,lightorange,lightblue,Player C shot perfectly,all-all-all,all-all-all,2,7,5107,NA
A3KLJMLE93GQ4N,English,focus,yellow,darkorange,lightorange,Exactly one player hit <b>NONE</b> of his shots,none-none-all,none-none-all,5,7,5811,NA
A3KLJMLE93GQ4N,English,focus,midnight,lightorange,brown,Exactly one player hit <b>SOME</b> of his shots,half-half-half,half-half-half,4,4,14541,NA
A3KLJMLE93GQ4N,English,focus,lavender,seafoam,lightorange,Someone did better than Player A,half-all-all,all-all-half,7,2,32229,NA
A3KLJMLE93GQ4N,English,focus,brown,tan,wheat,Exactly one player hit <b>ALL</b> of his shots,none-all-all,all-all-none,6,1,13245,NA
A3KLJMLE93GQ4N,English,focus,lightorange,darkorange,brown,Most of the players missed shots,none-none-half,none-none-half,9,7,5461,NA
A3KLJMLE93GQ4N,English,focus,tan,yellow,brown,Every player hit <b>ALL</b> of his shots,half-half-all,half-half-all,8,1,4566,NA
A3KLJMLE93GQ4N,English,focus,brown,lavender,royalblue,Player A placed second,none-none-none,none-none-none,11,1,4300,NA
A3KLJMLE93GQ4N,English,focus,grey,seafoam,darkorange,No player hit <b>ALL</b> of his shots,none-half-half,half-none-half,10,7,3453,NA
A3KLJMLE93GQ4N,English,focus,yellow,tan,lightorange,Every player hit <b>SOME</b> of his shots,none-none-half,none-none-half,13,1,20167,NA
A3KLJMLE93GQ4N,English,focus,seafoam,yellow,lavender,Player A shot perfectly,none-half-half,half-none-half,12,3,6732,NA
A3KLJMLE93GQ4N,English,focus,midnight,tan,wheat,No player hit <b>NONE</b> of his shots,none-none-all,none-none-all,15,1,4467,NA
A3KLJMLE93GQ4N,English,focus,lightblue,wheat,tan,Player B tied with Player C,half-all-all,all-all-half,14,1,41877,NA
A3KLJMLE93GQ4N,English,focus,pink,midnight,darkorange,Most of the players made shots,half-half-half,half-half-half,17,5,28625,NA
A3KLJMLE93GQ4N,English,focus,darkorange,lightblue,tan,Someone did better than Player C,all-all-all,all-all-all,16,2,4339,NA
A3KLJMLE93GQ4N,English,focus,midnight,seafoam,yellow,Player B shot perfectly,none-all-all,none-all-all,19,6,3749,NA
A3KLJMLE93GQ4N,English,focus,brown,lightorange,royalblue,We have a clear winner,half-half-half,half-half-half,18,1,5722,NA
A3KLJMLE93GQ4N,English,focus,seafoam,brown,pink,Player A was the star player of the round,most-none-all,most-none-all,-1,2,7695,yes
A3KLJMLE93GQ4N,English,focus,pink,lightblue,royalblue,Player A made none of his baskets,all-none-few,all-none-few,-3,1,10528,yes
A3KLJMLE93GQ4N,English,focus,seafoam,purple,midnight,Player C messed up,all-all-none,all-all-none,-2,7,11535,no
A31TR327TKEWDD,english,focus,lightblue,grey,seafoam,Player B made no shots,none-half-half,half-none-half,24,7,4485,NA
A31TR327TKEWDD,english,focus,lightblue,seafoam,tan,Player A placed second,none-half-all,all-none-half,25,1,3949,NA
A31TR327TKEWDD,english,focus,grey,yellow,lightblue,Most of the players made shots,none-none-none,none-none-none,26,7,4844,NA
A31TR327TKEWDD,english,focus,lightorange,yellow,darkorange,Exactly one player hit <b>SOME</b> of his shots,half-all-all,all-all-half,27,7,6037,NA
A31TR327TKEWDD,english,focus,royalblue,darkorange,lightorange,Player C shot perfectly,none-half-all,all-none-half,20,1,4731,NA
A31TR327TKEWDD,english,focus,seafoam,lavender,lightorange,Player C made no shots,none-none-all,none-none-all,21,1,4986,NA
A31TR327TKEWDD,english,focus,brown,seafoam,wheat,All the players are tied,none-half-all,all-none-half,22,3,5630,NA
A31TR327TKEWDD,english,focus,seafoam,tan,lavender,Someone did better than Player A,none-none-all,all-none-none,23,1,4956,NA
A31TR327TKEWDD,english,focus,grey,royalblue,darkorange,Player A tied with Player C,half-half-all,all-half-half,28,1,5135,NA
A31TR327TKEWDD,english,focus,darkorange,tan,seafoam,We have a clear winner,none-half-all,half-none-all,1,7,7246,NA
A31TR327TKEWDD,english,focus,tan,lightorange,lavender,Every player hit <b>ALL</b> of his shots,none-half-all,half-none-all,0,1,8779,NA
A31TR327TKEWDD,english,focus,wheat,purple,midnight,Most of the players missed shots,half-half-half,half-half-half,3,7,8123,NA
A31TR327TKEWDD,english,focus,brown,midnight,lavender,No player hit <b>ALL</b> of his shots,none-none-all,none-all-none,2,1,6413,NA
A31TR327TKEWDD,english,focus,lightblue,tan,darkorange,Player A made no shots,half-all-all,all-all-half,5,1,4829,NA
A31TR327TKEWDD,english,focus,lavender,tan,yellow,Player B tied with Player C,none-half-half,half-none-half,4,1,23181,NA
A31TR327TKEWDD,english,focus,royalblue,lavender,grey,Someone did better than Player C,none-half-all,all-none-half,7,7,7452,NA
A31TR327TKEWDD,english,focus,darkorange,royalblue,purple,No player hit <b>SOME</b> of his shots,none-half-all,half-all-none,6,1,10984,NA
A31TR327TKEWDD,english,focus,lightblue,lightorange,seafoam,Player B placed second,all-all-all,all-all-all,9,1,6614,NA
A31TR327TKEWDD,english,focus,grey,brown,purple,Player A tied with Player B,all-all-all,all-all-all,8,7,12656,NA
A31TR327TKEWDD,english,focus,seafoam,grey,lightblue,Exactly one player hit <b>NONE</b> of his shots,half-all-all,all-all-half,11,1,7992,NA
A31TR327TKEWDD,english,focus,yellow,darkorange,purple,Exactly one player hit <b>ALL</b> of his shots,none-none-none,none-none-none,10,1,7848,NA
A31TR327TKEWDD,english,focus,yellow,tan,darkorange,We have a clear loser,none-half-all,half-none-all,13,7,5932,NA
A31TR327TKEWDD,english,focus,lightorange,lightblue,pink,No player hit <b>NONE</b> of his shots,half-all-all,all-all-half,12,7,8780,NA
A31TR327TKEWDD,english,focus,purple,darkorange,midnight,Player B shot perfectly,none-half-half,half-half-none,15,1,7613,NA
A31TR327TKEWDD,english,focus,royalblue,brown,lavender,Every player hit <b>SOME</b> of his shots,none-none-half,none-none-half,14,1,6525,NA
A31TR327TKEWDD,english,focus,lavender,royalblue,seafoam,Someone did better than Player B,none-half-half,none-half-half,17,1,7690,NA
A31TR327TKEWDD,english,focus,tan,wheat,royalblue,Player C placed second,half-half-all,half-half-all,16,1,4918,NA
A31TR327TKEWDD,english,focus,lavender,lightblue,seafoam,Every player hit <b>NONE</b> of his shots,none-half-half,half-none-half,19,2,7649,NA
A31TR327TKEWDD,english,focus,grey,brown,darkorange,Player A shot perfectly,none-half-half,half-none-half,18,1,9577,NA
A31TR327TKEWDD,english,focus,grey,darkorange,tan,Player A was the star player of the round,most-none-all,most-none-all,-1,1,14335,yes
A31TR327TKEWDD,english,focus,midnight,pink,seafoam,Player A made none of his baskets,all-none-few,all-none-few,-3,1,24044,yes
A31TR327TKEWDD,english,focus,grey,seafoam,midnight,Player C messed up,all-all-none,all-all-none,-2,7,12649,yes
A1VIC6ETMK4CC0,english,only,lavender,grey,purple,No player hit all of his shots,half-half-all,half-half-all,24,1,5721,NA
A1VIC6ETMK4CC0,english,only,pink,lightorange,brown,Every player hit only some of his shots,none-half-all,half-all-none,25,1,6158,NA
A1VIC6ETMK4CC0,english,only,grey,wheat,seafoam,No player hit only some of his shots,none-all-all,none-all-all,26,7,7932,NA
A1VIC6ETMK4CC0,english,only,darkorange,brown,lightorange,Player A shot perfectly,half-half-all,half-all-half,27,1,4190,NA
A1VIC6ETMK4CC0,english,only,pink,lightorange,yellow,Player B made no shots,half-half-half,half-half-half,20,1,3594,NA
A1VIC6ETMK4CC0,english,only,lavender,yellow,royalblue,Exactly one player hit none of his shots,all-all-all,all-all-all,21,1,4955,NA
A1VIC6ETMK4CC0,english,only,midnight,darkorange,seafoam,Someone did better than Player C,none-half-half,none-half-half,22,1,4071,NA
A1VIC6ETMK4CC0,english,only,brown,wheat,lightorange,Someone did better than Player A,none-none-all,none-all-none,23,7,5335,NA
A1VIC6ETMK4CC0,english,only,seafoam,wheat,yellow,Player C shot perfectly,none-half-all,none-half-all,28,7,4249,NA
A1VIC6ETMK4CC0,english,only,pink,lightblue,purple,Every player hit all of his shots,half-all-all,all-all-half,1,1,4483,NA
A1VIC6ETMK4CC0,english,only,purple,seafoam,lightblue,Player C placed second,none-half-half,none-half-half,0,5,8134,NA
A1VIC6ETMK4CC0,english,only,grey,royalblue,brown,We have a clear loser,all-all-all,all-all-all,3,1,5349,NA
A1VIC6ETMK4CC0,english,only,seafoam,purple,wheat,Player A placed second,none-none-half,half-none-none,2,1,5605,NA
A1VIC6ETMK4CC0,english,only,pink,tan,purple,Player B tied with Player C,none-none-none,none-none-none,5,7,5467,NA
A1VIC6ETMK4CC0,english,only,royalblue,brown,grey,Exactly one player hit all of his shots,half-all-all,all-half-all,4,1,4919,NA
A1VIC6ETMK4CC0,english,only,purple,brown,lightorange,Player A made no shots,none-half-all,half-none-all,7,1,5107,NA
A1VIC6ETMK4CC0,english,only,lightblue,midnight,lightorange,Player B placed second,none-half-half,none-half-half,6,5,5637,NA
A1VIC6ETMK4CC0,english,only,yellow,tan,darkorange,Player C made no shots,half-half-all,half-all-half,9,1,4228,NA
A1VIC6ETMK4CC0,english,only,tan,wheat,pink,Every player hit none of his shots,none-all-all,all-all-none,8,1,5918,NA
A1VIC6ETMK4CC0,english,only,royalblue,tan,darkorange,We have a clear winner,half-all-all,half-all-all,11,3,4792,NA
A1VIC6ETMK4CC0,english,only,lavender,wheat,lightorange,No player hit none of his shots,none-half-all,none-all-half,10,1,5032,NA
A1VIC6ETMK4CC0,english,only,yellow,lavender,darkorange,Player A tied with Player C,none-half-half,none-half-half,13,1,4435,NA
A1VIC6ETMK4CC0,english,only,royalblue,midnight,yellow,Most of the players missed shots,half-half-all,half-all-half,12,7,5942,NA
A1VIC6ETMK4CC0,english,only,seafoam,midnight,yellow,Most of the players made shots,none-none-half,none-none-half,15,1,4518,NA
A1VIC6ETMK4CC0,english,only,lightblue,lightorange,purple,Someone did better than Player B,none-half-half,half-half-none,14,1,5458,NA
A1VIC6ETMK4CC0,english,only,pink,lightblue,tan,All the players are tied,none-half-all,all-half-none,17,1,3684,NA
A1VIC6ETMK4CC0,english,only,darkorange,lightblue,grey,Player B shot perfectly,none-half-half,none-half-half,16,1,3502,NA
A1VIC6ETMK4CC0,english,only,seafoam,purple,brown,Player A tied with Player B,none-none-half,none-none-half,19,7,4241,NA
A1VIC6ETMK4CC0,english,only,seafoam,lavender,tan,Exactly one player hit only some of his shots,none-none-half,half-none-none,18,7,7558,NA
A1VIC6ETMK4CC0,english,only,purple,seafoam,lavender,Player A was the star player of the round,most-none-all,most-none-all,-1,1,7694,yes
A1VIC6ETMK4CC0,english,only,wheat,lavender,purple,Player A made none of his baskets,all-none-few,all-none-few,-3,1,19575,yes
A1VIC6ETMK4CC0,english,only,grey,tan,brown,Player C messed up,all-all-none,all-all-none,-2,7,7485,yes
A1BCANW1Z2IJS4,English,focus,wheat,lightorange,tan,Every player hit <b>ALL</b> of his shots,none-half-half,none-half-half,24,1,3690,NA
A1BCANW1Z2IJS4,English,focus,grey,darkorange,seafoam,No player hit <b>ALL</b> of his shots,half-all-all,half-all-all,25,1,4900,NA
A1BCANW1Z2IJS4,English,focus,lightblue,royalblue,darkorange,Every player hit <b>SOME</b> of his shots,none-none-all,none-all-none,26,1,3317,NA
A1BCANW1Z2IJS4,English,focus,purple,seafoam,grey,Player B placed second,half-half-half,half-half-half,27,1,7020,NA
A1BCANW1Z2IJS4,English,focus,pink,lightorange,yellow,Player A tied with Player C,none-half-all,none-all-half,20,1,4348,NA
A1BCANW1Z2IJS4,English,focus,royalblue,midnight,pink,Someone did better than Player B,none-all-all,none-all-all,21,1,12265,NA
A1BCANW1Z2IJS4,English,focus,seafoam,darkorange,midnight,Player A placed second,half-all-all,all-all-half,22,1,12382,NA
A1BCANW1Z2IJS4,English,focus,lightorange,grey,lightblue,Player B made no shots,none-half-half,half-none-half,23,7,4971,NA
A1BCANW1Z2IJS4,English,focus,purple,midnight,lavender,Most of the players made shots,none-half-half,half-half-none,28,7,9647,NA
A1BCANW1Z2IJS4,English,focus,purple,seafoam,lavender,Someone did better than Player A,none-all-all,all-none-all,1,1,7622,NA
A1BCANW1Z2IJS4,English,focus,tan,royalblue,seafoam,Someone did better than Player C,half-all-all,half-all-all,0,1,10884,NA
A1BCANW1Z2IJS4,English,focus,midnight,royalblue,darkorange,We have a clear loser,half-all-all,half-all-all,3,7,11981,NA
A1BCANW1Z2IJS4,English,focus,brown,yellow,darkorange,No player hit <b>NONE</b> of his shots,half-half-all,half-half-all,2,7,17105,NA
A1BCANW1Z2IJS4,English,focus,tan,purple,brown,Player A made no shots,half-half-half,half-half-half,5,1,4756,NA
A1BCANW1Z2IJS4,English,focus,yellow,midnight,lightorange,Player C placed second,half-half-all,half-half-all,4,1,8003,NA
A1BCANW1Z2IJS4,English,focus,purple,brown,pink,Player A shot perfectly,none-all-all,all-none-all,7,7,5376,NA
A1BCANW1Z2IJS4,English,focus,pink,purple,seafoam,All the players are tied,none-none-half,none-none-half,6,1,5638,NA
A1BCANW1Z2IJS4,English,focus,wheat,yellow,grey,Exactly one player hit <b>ALL</b> of his shots,none-half-all,half-none-all,9,7,4924,NA
A1BCANW1Z2IJS4,English,focus,yellow,grey,lightblue,No player hit <b>SOME</b> of his shots,none-half-half,half-half-none,8,1,13874,NA
A1BCANW1Z2IJS4,English,focus,lightblue,royalblue,seafoam,Every player hit <b>NONE</b> of his shots,none-none-all,none-none-all,11,1,5524,NA
A1BCANW1Z2IJS4,English,focus,pink,lightorange,lavender,Player C made no shots,half-all-all,all-half-all,10,1,4251,NA
A1BCANW1Z2IJS4,English,focus,seafoam,darkorange,midnight,Exactly one player hit <b>SOME</b> of his shots,none-all-all,all-none-all,13,1,8589,NA
A1BCANW1Z2IJS4,English,focus,wheat,royalblue,seafoam,Exactly one player hit <b>NONE</b> of his shots,half-all-all,all-half-all,12,1,3956,NA
A1BCANW1Z2IJS4,English,focus,brown,grey,royalblue,We have a clear winner,none-none-none,none-none-none,15,1,3918,NA
A1BCANW1Z2IJS4,English,focus,midnight,purple,grey,Most of the players missed shots,none-all-all,all-all-none,14,1,4567,NA
A1BCANW1Z2IJS4,English,focus,tan,lightblue,yellow,Player B tied with Player C,none-half-all,all-half-none,17,1,5107,NA
A1BCANW1Z2IJS4,English,focus,lavender,yellow,grey,Player B shot perfectly,all-all-all,all-all-all,16,7,6396,NA
A1BCANW1Z2IJS4,English,focus,lavender,tan,wheat,Player C shot perfectly,none-none-half,none-none-half,19,1,4804,NA
A1BCANW1Z2IJS4,English,focus,darkorange,grey,lavender,Player A tied with Player B,all-all-all,all-all-all,18,7,6596,NA
A1BCANW1Z2IJS4,English,focus,lavender,darkorange,lightorange,Player A was the star player of the round,most-none-all,most-none-all,-1,2,21680,no
A1BCANW1Z2IJS4,English,focus,midnight,brown,yellow,Player A made none of his baskets,all-none-few,all-none-few,-3,1,15435,yes
A1BCANW1Z2IJS4,English,focus,lavender,yellow,wheat,Player C messed up,all-all-none,all-all-none,-2,7,17609,no
A2VC1Z9V4KG00P,English,only,lavender,midnight,purple,Player A tied with Player B,all-all-all,all-all-all,24,7,3020,NA
A2VC1Z9V4KG00P,English,only,tan,lightorange,grey,Player B placed second,none-half-all,half-all-none,25,1,5554,NA
A2VC1Z9V4KG00P,English,only,darkorange,purple,seafoam,No player hit all of his shots,all-all-all,all-all-all,26,1,2842,NA
A2VC1Z9V4KG00P,English,only,yellow,lightblue,tan,Player A shot perfectly,none-none-half,none-none-half,27,1,3374,NA
A2VC1Z9V4KG00P,English,only,brown,yellow,grey,Player A placed second,half-all-all,half-all-all,20,5,9523,NA
A2VC1Z9V4KG00P,English,only,grey,pink,wheat,We have a clear loser,half-half-half,half-half-half,21,1,3162,NA
A2VC1Z9V4KG00P,English,only,seafoam,royalblue,darkorange,Someone did better than Player A,half-half-all,all-half-half,22,1,7204,NA
A2VC1Z9V4KG00P,English,only,tan,purple,seafoam,All the players are tied,none-none-half,none-none-half,23,1,3170,NA
A2VC1Z9V4KG00P,English,only,royalblue,grey,wheat,Player C placed second,none-half-half,half-none-half,28,5,7951,NA
A2VC1Z9V4KG00P,English,only,midnight,darkorange,brown,Most of the players made shots,half-half-half,half-half-half,1,6,8603,NA
A2VC1Z9V4KG00P,English,only,royalblue,purple,lavender,Player B tied with Player C,all-all-all,all-all-all,0,7,9259,NA
A2VC1Z9V4KG00P,English,only,darkorange,yellow,pink,Player B shot perfectly,none-none-all,none-all-none,3,7,5770,NA
A2VC1Z9V4KG00P,English,only,yellow,darkorange,brown,Player A tied with Player C,none-half-all,half-none-all,2,1,4570,NA
A2VC1Z9V4KG00P,English,only,lavender,purple,lightorange,Every player hit only some of his shots,none-half-all,all-none-half,5,1,6827,NA
A2VC1Z9V4KG00P,English,only,lavender,darkorange,wheat,Someone did better than Player B,none-none-half,none-none-half,4,7,6009,NA
A2VC1Z9V4KG00P,English,only,brown,midnight,tan,Player C made no shots,none-none-all,none-all-none,7,7,17478,NA
A2VC1Z9V4KG00P,English,only,royalblue,midnight,lavender,Player C shot perfectly,half-half-half,half-half-half,6,1,3961,NA
A2VC1Z9V4KG00P,English,only,lightorange,darkorange,lightblue,Player B made no shots,none-none-none,none-none-none,9,7,3835,NA
A2VC1Z9V4KG00P,English,only,tan,lightblue,purple,Every player hit all of his shots,none-half-all,half-all-none,8,1,13399,NA
A2VC1Z9V4KG00P,English,only,midnight,darkorange,yellow,Most of the players missed shots,none-all-all,all-all-none,11,1,6188,NA
A2VC1Z9V4KG00P,English,only,darkorange,pink,brown,Exactly one player hit only some of his shots,none-none-half,none-none-half,10,7,5525,NA
A2VC1Z9V4KG00P,English,only,midnight,tan,purple,No player hit only some of his shots,all-all-all,all-all-all,13,7,7511,NA
A2VC1Z9V4KG00P,English,only,tan,grey,darkorange,Exactly one player hit all of his shots,none-none-none,none-none-none,12,1,3366,NA
A2VC1Z9V4KG00P,English,only,pink,grey,midnight,Someone did better than Player C,all-all-all,all-all-all,15,1,2667,NA
A2VC1Z9V4KG00P,English,only,royalblue,darkorange,wheat,Exactly one player hit none of his shots,half-all-all,half-all-all,14,1,5290,NA
A2VC1Z9V4KG00P,English,only,brown,yellow,royalblue,No player hit none of his shots,half-half-half,half-half-half,17,7,10018,NA
A2VC1Z9V4KG00P,English,only,lightblue,darkorange,seafoam,Every player hit none of his shots,half-all-all,all-all-half,16,1,3711,NA
A2VC1Z9V4KG00P,English,only,royalblue,lightorange,darkorange,Player A made no shots,none-half-half,half-none-half,19,1,3687,NA
A2VC1Z9V4KG00P,English,only,wheat,seafoam,midnight,We have a clear winner,half-all-all,all-half-all,18,1,3915,NA
A2VC1Z9V4KG00P,English,only,lavender,lightorange,darkorange,Player A was the star player of the round,most-none-all,most-none-all,-1,1,7297,yes
A2VC1Z9V4KG00P,English,only,lavender,brown,seafoam,Player A made none of his baskets,all-none-few,all-none-few,-3,1,13341,yes
A2VC1Z9V4KG00P,English,only,seafoam,grey,lightblue,Player C messed up,all-all-none,all-all-none,-2,7,6671,yes
APPZP50E4IOWJ,English,focus,grey,wheat,lavender,Player B made no shots,none-all-all,none-all-all,24,1,2541,NA
APPZP50E4IOWJ,English,focus,pink,yellow,lightorange,Exactly one player hit <b>ALL</b> of his shots,none-none-none,none-none-none,25,1,2396,NA
APPZP50E4IOWJ,English,focus,pink,grey,midnight,Someone did better than Player C,half-half-all,all-half-half,26,7,2814,NA
APPZP50E4IOWJ,English,focus,brown,lightblue,darkorange,Player B placed second,none-none-all,none-none-all,27,7,5388,NA
APPZP50E4IOWJ,English,focus,purple,lightorange,seafoam,Player C placed second,all-all-all,all-all-all,20,1,3630,NA
APPZP50E4IOWJ,English,focus,pink,tan,grey,Most of the players made shots,half-half-all,half-half-all,21,6,11838,NA
APPZP50E4IOWJ,English,focus,darkorange,lavender,brown,Every player hit <b>NONE</b> of his shots,none-all-all,none-all-all,22,1,2808,NA
APPZP50E4IOWJ,English,focus,royalblue,seafoam,lightblue,Player A tied with Player C,all-all-all,all-all-all,23,7,3028,NA
APPZP50E4IOWJ,English,focus,seafoam,lightblue,wheat,Exactly one player hit <b>NONE</b> of his shots,none-all-all,none-all-all,28,7,2959,NA
APPZP50E4IOWJ,English,focus,brown,royalblue,lightblue,No player hit <b>ALL</b> of his shots,none-half-all,all-none-half,1,1,6849,NA
APPZP50E4IOWJ,English,focus,royalblue,lavender,darkorange,Every player hit <b>SOME</b> of his shots,all-all-all,all-all-all,0,4,12959,NA
APPZP50E4IOWJ,English,focus,tan,brown,yellow,Player A placed second,all-all-all,all-all-all,3,1,6949,NA
APPZP50E4IOWJ,English,focus,royalblue,darkorange,yellow,We have a clear loser,none-half-all,all-half-none,2,7,6881,NA
APPZP50E4IOWJ,English,focus,wheat,grey,pink,Player C made no shots,none-none-half,none-none-half,5,1,3341,NA
APPZP50E4IOWJ,English,focus,brown,royalblue,purple,Every player hit <b>ALL</b> of his shots,none-half-half,none-half-half,4,1,4897,NA
APPZP50E4IOWJ,English,focus,purple,pink,yellow,Player A shot perfectly,none-none-all,none-all-none,7,1,2697,NA
APPZP50E4IOWJ,English,focus,lightorange,royalblue,midnight,Most of the players missed shots,none-none-all,none-none-all,6,7,4756,NA
APPZP50E4IOWJ,English,focus,lavender,yellow,darkorange,Player B tied with Player C,none-none-all,none-all-none,9,1,5033,NA
APPZP50E4IOWJ,English,focus,wheat,brown,yellow,Exactly one player hit <b>SOME</b> of his shots,none-half-half,none-half-half,8,1,4973,NA
APPZP50E4IOWJ,English,focus,midnight,purple,pink,Player B shot perfectly,half-all-all,half-all-all,11,7,13152,NA
APPZP50E4IOWJ,English,focus,purple,royalblue,seafoam,No player hit <b>SOME</b> of his shots,half-half-half,half-half-half,10,1,4281,NA
APPZP50E4IOWJ,English,focus,pink,seafoam,lavender,No player hit <b>NONE</b> of his shots,none-half-half,half-half-none,13,1,3821,NA
APPZP50E4IOWJ,English,focus,midnight,tan,seafoam,Player A made no shots,none-none-half,none-none-half,12,7,2784,NA
APPZP50E4IOWJ,English,focus,yellow,midnight,darkorange,Player C shot perfectly,half-all-all,half-all-all,15,7,3461,NA
APPZP50E4IOWJ,English,focus,royalblue,pink,midnight,Player A tied with Player B,none-none-none,none-none-none,14,7,3317,NA
APPZP50E4IOWJ,English,focus,lightorange,tan,wheat,Someone did better than Player A,none-none-none,none-none-none,17,1,3132,NA
APPZP50E4IOWJ,English,focus,seafoam,midnight,wheat,We have a clear winner,half-half-half,half-half-half,16,1,2993,NA
APPZP50E4IOWJ,English,focus,lightblue,yellow,wheat,Someone did better than Player B,half-half-all,all-half-half,19,7,5199,NA
APPZP50E4IOWJ,English,focus,royalblue,lightblue,brown,All the players are tied,none-half-all,none-all-half,18,1,2739,NA
APPZP50E4IOWJ,English,focus,purple,midnight,wheat,Player A was the star player of the round,most-none-all,most-none-all,-1,1,6979,yes
APPZP50E4IOWJ,English,focus,darkorange,brown,midnight,Player A made none of his baskets,all-none-few,all-none-few,-3,1,14005,yes
APPZP50E4IOWJ,English,focus,purple,brown,tan,Player C messed up,all-all-none,all-all-none,-2,7,6943,yes
AJGQEYCFOR1BC,english,focus,lightorange,yellow,midnight,Player C made no shots,none-all-all,all-none-all,24,1,4049,NA
AJGQEYCFOR1BC,english,focus,darkorange,seafoam,lightblue,We have a clear winner,half-half-half,half-half-half,25,1,4592,NA
AJGQEYCFOR1BC,english,focus,tan,wheat,lavender,We have a clear loser,all-all-all,all-all-all,26,1,3322,NA
AJGQEYCFOR1BC,english,focus,tan,darkorange,purple,No player hit <b>NONE</b> of his shots,none-half-half,none-half-half,27,1,14770,NA
AJGQEYCFOR1BC,english,focus,brown,darkorange,wheat,Someone did better than Player B,half-half-all,half-all-half,20,1,6075,NA
AJGQEYCFOR1BC,english,focus,lavender,seafoam,midnight,Player C shot perfectly,none-all-all,none-all-all,21,7,3545,NA
AJGQEYCFOR1BC,english,focus,royalblue,yellow,wheat,Someone did better than Player C,none-half-half,half-none-half,22,1,4235,NA
AJGQEYCFOR1BC,english,focus,grey,yellow,purple,Most of the players made shots,half-half-half,half-half-half,23,7,3119,NA
AJGQEYCFOR1BC,english,focus,pink,royalblue,lightblue,No player hit <b>ALL</b> of his shots,half-half-half,half-half-half,28,7,3873,NA
AJGQEYCFOR1BC,english,focus,yellow,grey,pink,Player B shot perfectly,all-all-all,all-all-all,1,7,4552,NA
AJGQEYCFOR1BC,english,focus,lightorange,grey,royalblue,Every player hit <b>SOME</b> of his shots,half-half-half,half-half-half,0,7,6085,NA
AJGQEYCFOR1BC,english,focus,midnight,tan,wheat,Player A tied with Player C,none-none-all,all-none-none,3,1,4250,NA
AJGQEYCFOR1BC,english,focus,purple,darkorange,lightblue,Player B placed second,half-all-all,all-all-half,2,1,6108,NA
AJGQEYCFOR1BC,english,focus,lavender,lightblue,yellow,Player B made no shots,none-half-half,half-half-none,5,1,3540,NA
AJGQEYCFOR1BC,english,focus,tan,yellow,pink,Someone did better than Player A,none-all-all,all-all-none,4,1,6558,NA
AJGQEYCFOR1BC,english,focus,wheat,midnight,darkorange,Player A made no shots,none-half-all,all-half-none,7,1,4266,NA
AJGQEYCFOR1BC,english,focus,purple,lavender,tan,Player A tied with Player B,none-all-all,all-none-all,6,1,4956,NA
AJGQEYCFOR1BC,english,focus,pink,brown,yellow,Exactly one player hit <b>SOME</b> of his shots,all-all-all,all-all-all,9,1,7225,NA
AJGQEYCFOR1BC,english,focus,royalblue,wheat,yellow,Player A placed second,none-none-half,none-none-half,8,7,6564,NA
AJGQEYCFOR1BC,english,focus,yellow,lavender,lightorange,Every player hit <b>ALL</b> of his shots,none-all-all,all-none-all,11,1,4249,NA
AJGQEYCFOR1BC,english,focus,brown,lightorange,purple,Player A shot perfectly,none-none-all,all-none-none,10,7,3494,NA
AJGQEYCFOR1BC,english,focus,pink,lightblue,darkorange,Every player hit <b>NONE</b> of his shots,half-half-half,half-half-half,13,1,3634,NA
AJGQEYCFOR1BC,english,focus,brown,yellow,midnight,Player B tied with Player C,none-none-all,none-all-none,12,1,4646,NA
AJGQEYCFOR1BC,english,focus,pink,darkorange,brown,Exactly one player hit <b>NONE</b> of his shots,none-half-half,half-half-none,15,7,5665,NA
AJGQEYCFOR1BC,english,focus,purple,darkorange,pink,No player hit <b>SOME</b> of his shots,half-all-all,half-all-all,14,1,6860,NA
AJGQEYCFOR1BC,english,focus,royalblue,yellow,brown,Most of the players missed shots,none-none-half,none-half-none,17,6,6262,NA
AJGQEYCFOR1BC,english,focus,lavender,darkorange,grey,Exactly one player hit <b>ALL</b> of his shots,half-half-all,all-half-half,16,7,5286,NA
AJGQEYCFOR1BC,english,focus,midnight,lightorange,brown,Player C placed second,half-half-all,all-half-half,19,6,5618,NA
AJGQEYCFOR1BC,english,focus,grey,tan,yellow,All the players are tied,half-half-half,half-half-half,18,7,3763,NA
AJGQEYCFOR1BC,english,focus,seafoam,royalblue,grey,Player A was the star player of the round,most-none-all,most-none-all,-1,2,10681,yes
AJGQEYCFOR1BC,english,focus,tan,seafoam,lavender,Player A made none of his baskets,all-none-few,all-none-few,-3,1,12934,yes
AJGQEYCFOR1BC,english,focus,lavender,royalblue,yellow,Player C messed up,all-all-none,all-all-none,-2,7,6908,yes
A1PO75Q02UI6GC,American English,focus,darkorange,purple,seafoam,Every player hit <b>NONE</b> of his shots,none-half-half,half-none-half,24,1,5699,NA
A1PO75Q02UI6GC,American English,focus,purple,seafoam,wheat,Someone did better than Player A,none-half-half,none-half-half,25,6,7156,NA
A1PO75Q02UI6GC,American English,focus,seafoam,purple,lightblue,All the players are tied,half-all-all,all-all-half,26,1,5035,NA
A1PO75Q02UI6GC,American English,focus,darkorange,seafoam,yellow,Player C placed second,half-half-half,half-half-half,27,2,14966,NA
A1PO75Q02UI6GC,American English,focus,darkorange,brown,lightorange,Player A tied with Player B,none-all-all,none-all-all,20,1,5238,NA
A1PO75Q02UI6GC,American English,focus,purple,wheat,grey,Player B shot perfectly,all-all-all,all-all-all,21,6,5578,NA
A1PO75Q02UI6GC,American English,focus,seafoam,grey,lightorange,Player C made no shots,half-half-half,half-half-half,22,1,4239,NA
A1PO75Q02UI6GC,American English,focus,royalblue,purple,seafoam,We have a clear loser,none-all-all,all-none-all,23,7,4780,NA
A1PO75Q02UI6GC,American English,focus,royalblue,tan,lightblue,Player A placed second,all-all-all,all-all-all,28,2,5055,NA
